,expt_id,Group,group_id,invRT,Trial,participant_id,response_correct,response_name,response_rt,stimuli_presented,trial_template,trial_duration,PartBlocks,AllBlocks,Pattern,trial_num,PB,Final,Part,Correct
1, 6.30.25,DisFirst_reg,,-0.025040691123075,,Dis_reg1,(any response),,39935,Practice_Instructions, 6.30.25,39955,,,,,,,,(any response)
2, 6.30.25,DisFirst_reg,,-0.1866019779809666,,Dis_reg1,(based on tag),,5359,"Practice (1, bumblebee.wav)", 6.30.25,45834,,,,,b,,,(based on tag)
3, 6.30.25,DisFirst_reg,,-0.24372410431391664,,Dis_reg1,(based on tag),,4103,"Practice (2, canopy.wav)", 6.30.25,50583,,,,,p,,,(based on tag)
4, 6.30.25,DisFirst_reg,,-0.5141388174807198,,Dis_reg1,(based on tag),,1945,"Practice (3, cob.wav)", 6.30.25,53183,,,,,b,,,(based on tag)
5, 6.30.25,DisFirst_reg,,-0.6887052341597796,,Dis_reg1,(based on tag),,1452,"Practice (4, copy.wav)", 6.30.25,55282,,,,,p,,,(based on tag)
6, 6.30.25,DisFirst_reg,,-0.22396416573348266,,Dis_reg1,(based on tag),,4465,"Practice (5, crab.wav)", 6.30.25,60391,,,,,b,,,(based on tag)
7, 6.30.25,DisFirst_reg,,-0.7716049382716049,,Dis_reg1,(based on tag),,1296,"Practice (6, crimp.wav)", 6.30.25,62331,,,,,p,,,(based on tag)
8, 6.30.25,DisFirst_reg,,-0.6146281499692686,,Dis_reg1,(based on tag),,1627,"Practice (7, flop.wav)", 6.30.25,64561,,,,,p,,,(based on tag)
9, 6.30.25,DisFirst_reg,,-0.7331378299120235,,Dis_reg1,(based on tag),,1364,"Practice (8, grab.wav)", 6.30.25,66560,,,,,b,,,(based on tag)
10, 6.30.25,DisFirst_reg,,-1.1111111111111112,,Dis_reg1,(based on tag),,900,"Practice (9, grub.wav)", 6.30.25,68120,,,,,b,,,(based on tag)
11, 6.30.25,DisFirst_reg,,-0.5834305717619603,,Dis_reg1,(based on tag),,1714,"Practice (10, hippie.wav)", 6.30.25,70470,,,,,p,,,(based on tag)
12, 6.30.25,DisFirst_reg,,-0.6468305304010349,,Dis_reg1,(based on tag),,1546,"Practice (11, lobe.wav)", 6.30.25,72649,,,,,b,,,(based on tag)
13, 6.30.25,DisFirst_reg,,-0.43252595155709345,,Dis_reg1,(based on tag),,2312,"Practice (12, maybe.wav)", 6.30.25,75639,,,,,b,,,(based on tag)
14, 6.30.25,DisFirst_reg,,-0.35137034434293746,,Dis_reg1,(based on tag),,2846,"Practice (13, placebo.wav)", 6.30.25,79128,,,,,b,,,(based on tag)
15, 6.30.25,DisFirst_reg,,-0.5837711617046117,,Dis_reg1,(based on tag),,1713,"Practice (14, pope.wav)", 6.30.25,81488,,,,,p,,,(based on tag)
16, 6.30.25,DisFirst_reg,,-0.779423226812159,,Dis_reg1,(based on tag),,1283,"Practice (15, ripe.wav)", 6.30.25,83397,,,,,p,,,(based on tag)
17, 6.30.25,DisFirst_reg,,-0.6839945280437757,,Dis_reg1,(based on tag),,1462,"Practice (16, scuba.wav)", 6.30.25,85507,,,,,b,,,(based on tag)
18, 6.30.25,DisFirst_reg,,-0.6544502617801047,,Dis_reg1,(based on tag),,1528,"Practice (17, shape.wav)", 6.30.25,87667,,,,,p,,,(based on tag)
19, 6.30.25,DisFirst_reg,,-0.5274261603375527,,Dis_reg1,(based on tag),,1896,"Practice (18, toupee.wav)", 6.30.25,90186,,,,,p,,,(based on tag)
20, 6.30.25,DisFirst_reg,,-0.6578947368421053,,Dis_reg1,(based on tag),,1520,"Practice (19, canopy.wav)", 6.30.25,92356,,,,,p,,,(based on tag)
21, 6.30.25,DisFirst_reg,,-0.697350069735007,,Dis_reg1,(based on tag),,1434,"Practice (20, wallaby.wav)", 6.30.25,94435,,,,,b,,,(based on tag)
22, 6.30.25,DisFirst_reg,,-0.07538067239559777,,Dis_reg1,(any response),,13266,Instructions, 6.30.25,108223,,,,,,,,(any response)
23, 6.30.25,DisFirst_reg,,-333.3333333333333,,Dis_reg1,(based on tag),,3,"dispref (29, todib.wav)", 6.30.25,108402,,,,,b,,,(based on tag)
24, 6.30.25,DisFirst_reg,,-0.5656108597285068,,Dis_reg1,(based on tag),,1768,"dispref (6, bogepe.wav)", 6.30.25,111222,,,,,p,,,(based on tag)
25, 6.30.25,DisFirst_reg,,-0.7077140835102619,,Dis_reg1,(based on tag),,1413,"dispref (17, goteb.wav)", 6.30.25,112842,,,,,b,,,(based on tag)
26, 6.30.25,DisFirst_reg,,-0.6939625260235948,,Dis_reg1,(based on tag),,1441,"dispref (23, pigeb.wav)", 6.30.25,114481,,,,,b,,,(based on tag)
27, 6.30.25,DisFirst_reg,,-0.5973715651135006,,Dis_reg1,(based on tag),,1674,"dispref (4, bikube.wav)", 6.30.25,116341,,,,,p,,,(based on tag)
28, 6.30.25,DisFirst_reg,,-0.7309941520467836,,Dis_reg1,(based on tag),,1368,"dispref (16, dokupe.wav)", 6.30.25,117871,,,,,p,,,(based on tag)
29, 6.30.25,DisFirst_reg,,-0.7440476190476191,,Dis_reg1,(based on tag),,1344,"dispref (8, bugipe.wav)", 6.30.25,119370,,,,,p,,,(based on tag)
30, 6.30.25,DisFirst_reg,,-0.8496176720475785,,Dis_reg1,(based on tag),,1177,"dispref (15, dokub.wav)", 6.30.25,120690,,,,,b,,,(based on tag)
31, 6.30.25,DisFirst_reg,,-0.8012820512820513,,Dis_reg1,(based on tag),,1248,"dispref (32, todupe.wav)", 6.30.25,122110,,,,,p,,,(based on tag)
32, 6.30.25,DisFirst_reg,,-0.8298755186721992,,Dis_reg1,(based on tag),,1205,"dispref (10, degope.wav)", 6.30.25,123479,,,,,p,,,(based on tag)
33, 6.30.25,DisFirst_reg,,-0.9505703422053232,,Dis_reg1,(based on tag),,1052,"dispref (27, tekub.wav)", 6.30.25,124730,,,,,b,,,(based on tag)
34, 6.30.25,DisFirst_reg,,-0.8025682182985554,,Dis_reg1,(based on tag),,1246,"dispref (12, dikepe.wav)", 6.30.25,126169,,,,,p,,,(based on tag)
35, 6.30.25,DisFirst_reg,,-0.7479431563201197,,Dis_reg1,(based on tag),,1337,"dispref (22, pidope.wav)", 6.30.25,127649,,,,,p,,,(based on tag)
36, 6.30.25,DisFirst_reg,,-0.9775171065493646,,Dis_reg1,(based on tag),,1023,"dispref (3, bikub.wav)", 6.30.25,128829,,,,,b,,,(based on tag)
37, 6.30.25,DisFirst_reg,,-0.8873114463176575,,Dis_reg1,(based on tag),,1127,"dispref (2, bidope.wav)", 6.30.25,130158,,,,,p,,,(based on tag)
38, 6.30.25,DisFirst_reg,,-0.8460236886632826,,Dis_reg1,(based on tag),,1182,"dispref (7, bugib.wav)", 6.30.25,131578,,,,,b,,,(based on tag)
39, 6.30.25,DisFirst_reg,,-0.7656967840735069,,Dis_reg1,(based on tag),,1306,"dispref (28, tekupe.wav)", 6.30.25,133048,,,,,p,,,(based on tag)
40, 6.30.25,DisFirst_reg,,-0.7331378299120235,,Dis_reg1,(based on tag),,1364,"dispref (18, gotepe.wav)", 6.30.25,134578,,,,,p,,,(based on tag)
41, 6.30.25,DisFirst_reg,,-0.8237232289950577,,Dis_reg1,(based on tag),,1214,"dispref (11, dikeb.wav)", 6.30.25,135937,,,,,b,,,(based on tag)
42, 6.30.25,DisFirst_reg,,-0.8445945945945946,,Dis_reg1,(based on tag),,1184,"dispref (25, potib.wav)", 6.30.25,137267,,,,,b,,,(based on tag)
43, 6.30.25,DisFirst_reg,,-0.757002271006813,,Dis_reg1,(based on tag),,1321,"dispref (26, potipe.wav)", 6.30.25,138747,,,,,p,,,(based on tag)
44, 6.30.25,DisFirst_reg,,-0.5945303210463734,,Dis_reg1,(based on tag),,1682,"dispref (9, degob.wav)", 6.30.25,140627,,,,,b,,,(based on tag)
45, 6.30.25,DisFirst_reg,,-0.8123476848090982,,Dis_reg1,(based on tag),,1231,"dispref (14, dogipe.wav)", 6.30.25,142056,,,,,p,,,(based on tag)
46, 6.30.25,DisFirst_reg,,-0.7107320540156361,,Dis_reg1,(based on tag),,1407,"dispref (24, pigepe.wav)", 6.30.25,143616,,,,,p,,,(based on tag)
47, 6.30.25,DisFirst_reg,,-0.9652509652509652,,Dis_reg1,(based on tag),,1036,"dispref (1, bidob.wav)", 6.30.25,144856,,,,,b,,,(based on tag)
48, 6.30.25,DisFirst_reg,,-0.9578544061302682,,Dis_reg1,(based on tag),,1044,"dispref (5, bogeb.wav)", 6.30.25,146045,,,,,b,,,(based on tag)
49, 6.30.25,DisFirst_reg,,-0.8382229673093042,,Dis_reg1,(based on tag),,1193,"dispref (30, todipe.wav)", 6.30.25,147395,,,,,p,,,(based on tag)
50, 6.30.25,DisFirst_reg,,-1.1049723756906078,,Dis_reg1,(based on tag),,905,"dispref (21, pidob.wav)", 6.30.25,148525,,,,,b,,,(based on tag)
51, 6.30.25,DisFirst_reg,,-0.8271298593879239,,Dis_reg1,(based on tag),,1209,"dispref (20, gutope.wav)", 6.30.25,149895,,,,,p,,,(based on tag)
52, 6.30.25,DisFirst_reg,,-1.0319917440660475,,Dis_reg1,(based on tag),,969,"dispref (31, todub.wav)", 6.30.25,151064,,,,,b,,,(based on tag)
53, 6.30.25,DisFirst_reg,,-0.856898029134533,,Dis_reg1,(based on tag),,1167,"dispref (19, gutob.wav)", 6.30.25,152374,,,,,b,,,(based on tag)
54, 6.30.25,DisFirst_reg,,-0.9208103130755064,,Dis_reg1,(based on tag),,1086,"dispref (13, dogib.wav)", 6.30.25,153614,,,,,b,,,(based on tag)
55, 6.30.25,DisFirst_reg,,-0.08275405494869248,,Dis_reg1,(any response),,12084,Please take a b..., 6.30.25,164612,,,,,,,,(any response)
56, 6.30.25,DisFirst_reg,,-0.7331378299120235,,Dis_reg1,(based on tag),,1364,"dispref (8, bugipe.wav)", 6.30.25,166112,,,,,p,,,(based on tag)
57, 6.30.25,DisFirst_reg,,-0.777000777000777,,Dis_reg1,(based on tag),,1287,"dispref (7, bugib.wav)", 6.30.25,167541,,,,,b,,,(based on tag)
58, 6.30.25,DisFirst_reg,,-0.6153846153846154,,Dis_reg1,(based on tag),,1625,"dispref (25, potib.wav)", 6.30.25,169311,,,,,b,,,(based on tag)
59, 6.30.25,DisFirst_reg,,-0.8216926869350862,,Dis_reg1,(based on tag),,1217,"dispref (17, goteb.wav)", 6.30.25,170721,,,,,b,,,(based on tag)
60, 6.30.25,DisFirst_reg,,-0.9149130832570905,,Dis_reg1,(based on tag),,1093,"dispref (31, todub.wav)", 6.30.25,172001,,,,,b,,,(based on tag)
61, 6.30.25,DisFirst_reg,,-0.7616146230007617,,Dis_reg1,(based on tag),,1313,"dispref (10, degope.wav)", 6.30.25,173470,,,,,p,,,(based on tag)
62, 6.30.25,DisFirst_reg,,-1.0298661174047374,,Dis_reg1,(based on tag),,971,"dispref (11, dikeb.wav)", 6.30.25,174610,,,,,b,,,(based on tag)
63, 6.30.25,DisFirst_reg,,-1.1933174224343674,,Dis_reg1,(based on tag),,838,"dispref (21, pidob.wav)", 6.30.25,175600,,,,,b,,,(based on tag)
64, 6.30.25,DisFirst_reg,,-1.203369434416366,,Dis_reg1,(based on tag),,831,"dispref (5, bogeb.wav)", 6.30.25,176660,,,,,b,,,(based on tag)
65, 6.30.25,DisFirst_reg,,-0.8688097306689835,,Dis_reg1,(based on tag),,1151,"dispref (20, gutope.wav)", 6.30.25,178039,,,,,p,,,(based on tag)
66, 6.30.25,DisFirst_reg,,-0.8084074373484236,,Dis_reg1,(based on tag),,1237,"dispref (28, tekupe.wav)", 6.30.25,179529,,,,,p,,,(based on tag)
67, 6.30.25,DisFirst_reg,,-0.8382229673093042,,Dis_reg1,(based on tag),,1193,"dispref (2, bidope.wav)", 6.30.25,180889,,,,,p,,,(based on tag)
68, 6.30.25,DisFirst_reg,,-1.0224948875255624,,Dis_reg1,(based on tag),,978,"dispref (1, bidob.wav)", 6.30.25,182039,,,,,b,,,(based on tag)
69, 6.30.25,DisFirst_reg,,-0.7423904974016332,,Dis_reg1,(based on tag),,1347,"dispref (22, pidope.wav)", 6.30.25,183538,,,,,p,,,(based on tag)
70, 6.30.25,DisFirst_reg,,-0.9041591320072333,,Dis_reg1,(based on tag),,1106,"dispref (26, potipe.wav)", 6.30.25,184788,,,,,p,,,(based on tag)
71, 6.30.25,DisFirst_reg,,-0.7299270072992701,,Dis_reg1,(based on tag),,1370,"dispref (18, gotepe.wav)", 6.30.25,186458,,,,,p,,,(based on tag)
72, 6.30.25,DisFirst_reg,,-0.78125,,Dis_reg1,(based on tag),,1280,"dispref (12, dikepe.wav)", 6.30.25,187878,,,,,p,,,(based on tag)
73, 6.30.25,DisFirst_reg,,-0.8051529790660226,,Dis_reg1,(based on tag),,1242,"dispref (24, pigepe.wav)", 6.30.25,189277,,,,,p,,,(based on tag)
74, 6.30.25,DisFirst_reg,,-0.7880220646178093,,Dis_reg1,(based on tag),,1269,"dispref (13, dogib.wav)", 6.30.25,190737,,,,,b,,,(based on tag)
75, 6.30.25,DisFirst_reg,,-0.8865248226950354,,Dis_reg1,(based on tag),,1128,"dispref (29, todib.wav)", 6.30.25,192057,,,,,b,,,(based on tag)
76, 6.30.25,DisFirst_reg,,-0.7604562737642585,,Dis_reg1,(based on tag),,1315,"dispref (14, dogipe.wav)", 6.30.25,193577,,,,,p,,,(based on tag)
77, 6.30.25,DisFirst_reg,,-0.9624639076034649,,Dis_reg1,(based on tag),,1039,"dispref (19, gutob.wav)", 6.30.25,194786,,,,,b,,,(based on tag)
78, 6.30.25,DisFirst_reg,,-0.8084074373484236,,Dis_reg1,(based on tag),,1237,"dispref (30, todipe.wav)", 6.30.25,196166,,,,,p,,,(based on tag)
79, 6.30.25,DisFirst_reg,,-0.8264462809917356,,Dis_reg1,(based on tag),,1210,"dispref (32, todupe.wav)", 6.30.25,197566,,,,,p,,,(based on tag)
80, 6.30.25,DisFirst_reg,,-1.0,,Dis_reg1,(based on tag),,1000,"dispref (23, pigeb.wav)", 6.30.25,198736,,,,,b,,,(based on tag)
81, 6.30.25,DisFirst_reg,,-0.8920606601248885,,Dis_reg1,(based on tag),,1121,"dispref (16, dokupe.wav)", 6.30.25,200016,,,,,p,,,(based on tag)
82, 6.30.25,DisFirst_reg,,-0.9049773755656109,,Dis_reg1,(based on tag),,1105,"dispref (3, bikub.wav)", 6.30.25,201425,,,,,b,,,(based on tag)
83, 6.30.25,DisFirst_reg,,-0.8169934640522876,,Dis_reg1,(based on tag),,1224,"dispref (6, bogepe.wav)", 6.30.25,202815,,,,,p,,,(based on tag)
84, 6.30.25,DisFirst_reg,,-0.9689922480620154,,Dis_reg1,(based on tag),,1032,"dispref (27, tekub.wav)", 6.30.25,203995,,,,,b,,,(based on tag)
85, 6.30.25,DisFirst_reg,,-1.0471204188481675,,Dis_reg1,(based on tag),,955,"dispref (15, dokub.wav)", 6.30.25,205095,,,,,b,,,(based on tag)
86, 6.30.25,DisFirst_reg,,-0.9587727708533078,,Dis_reg1,(based on tag),,1043,"dispref (9, degob.wav)", 6.30.25,206284,,,,,b,,,(based on tag)
87, 6.30.25,DisFirst_reg,,-0.7117437722419929,,Dis_reg1,(based on tag),,1405,"dispref (4, bikube.wav)", 6.30.25,207844,,,,,p,,,(based on tag)
88, 6.30.25,DisFirst_reg,,-0.04851542790607413,,Dis_reg1,(any response),,20612,Please take a b..., 6.30.25,227051,,,,,,,,(any response)
89, 6.30.25,DisFirst_reg,,-0.7204610951008645,,Dis_reg1,(based on tag),,1388,"dispref (28, tekupe.wav)", 6.30.25,228620,,,,,p,,,(based on tag)
90, 6.30.25,DisFirst_reg,,-1.016260162601626,,Dis_reg1,(based on tag),,984,"dispref (7, bugib.wav)", 6.30.25,229750,,,,,b,,,(based on tag)
91, 6.30.25,DisFirst_reg,,-0.8045052292839904,,Dis_reg1,(based on tag),,1243,"dispref (30, todipe.wav)", 6.30.25,231150,,,,,p,,,(based on tag)
92, 6.30.25,DisFirst_reg,,-0.8481764206955047,,Dis_reg1,(based on tag),,1179,"dispref (1, bidob.wav)", 6.30.25,232499,,,,,b,,,(based on tag)
93, 6.30.25,DisFirst_reg,,-0.7446016381236039,,Dis_reg1,(based on tag),,1343,"dispref (22, pidope.wav)", 6.30.25,233999,,,,,p,,,(based on tag)
94, 6.30.25,DisFirst_reg,,-0.7616146230007617,,Dis_reg1,(based on tag),,1313,"dispref (6, bogepe.wav)", 6.30.25,235499,,,,,p,,,(based on tag)
95, 6.30.25,DisFirst_reg,,-0.7830853563038371,,Dis_reg1,(based on tag),,1277,"dispref (2, bidope.wav)", 6.30.25,236979,,,,,p,,,(based on tag)
96, 6.30.25,DisFirst_reg,,-0.8613264427217916,,Dis_reg1,(based on tag),,1161,"dispref (8, bugipe.wav)", 6.30.25,238288,,,,,p,,,(based on tag)
97, 6.30.25,DisFirst_reg,,-0.9523809523809523,,Dis_reg1,(based on tag),,1050,"dispref (29, todib.wav)", 6.30.25,239588,,,,,b,,,(based on tag)
98, 6.30.25,DisFirst_reg,,-0.8598452278589854,,Dis_reg1,(based on tag),,1163,"dispref (10, degope.wav)", 6.30.25,240928,,,,,p,,,(based on tag)
99, 6.30.25,DisFirst_reg,,-0.8488964346349746,,Dis_reg1,(based on tag),,1178,"dispref (14, dogipe.wav)", 6.30.25,242348,,,,,p,,,(based on tag)
100, 6.30.25,DisFirst_reg,,-1.0471204188481675,,Dis_reg1,(based on tag),,955,"dispref (15, dokub.wav)", 6.30.25,243537,,,,,b,,,(based on tag)
101, 6.30.25,DisFirst_reg,,-0.8764241893076249,,Dis_reg1,(based on tag),,1141,"dispref (16, dokupe.wav)", 6.30.25,244887,,,,,p,,,(based on tag)
102, 6.30.25,DisFirst_reg,,-0.6684491978609626,,Dis_reg1,(based on tag),,1496,"dispref (25, potib.wav)", 6.30.25,246657,,,,,b,,,(based on tag)
103, 6.30.25,DisFirst_reg,,-0.9940357852882704,,Dis_reg1,(based on tag),,1006,"dispref (19, gutob.wav)", 6.30.25,247807,,,,,b,,,(based on tag)
104, 6.30.25,DisFirst_reg,,-37.03703703703704,,Dis_reg1,(based on tag),,27,"dispref (31, todub.wav)", 6.30.25,247996,,,,,b,,,(based on tag)
105, 6.30.25,DisFirst_reg,,-1.1560693641618498,,Dis_reg1,(based on tag),,865,"dispref (13, dogib.wav)", 6.30.25,249886,,,,,b,,,(based on tag)
106, 6.30.25,DisFirst_reg,,-0.8849557522123894,,Dis_reg1,(based on tag),,1130,"dispref (21, pidob.wav)", 6.30.25,251196,,,,,b,,,(based on tag)
107, 6.30.25,DisFirst_reg,,-0.9276437847866419,,Dis_reg1,(based on tag),,1078,"dispref (17, goteb.wav)", 6.30.25,252426,,,,,b,,,(based on tag)
108, 6.30.25,DisFirst_reg,,-1.0822510822510822,,Dis_reg1,(based on tag),,924,"dispref (11, dikeb.wav)", 6.30.25,253495,,,,,b,,,(based on tag)
109, 6.30.25,DisFirst_reg,,-0.9328358208955224,,Dis_reg1,(based on tag),,1072,"dispref (9, degob.wav)", 6.30.25,254745,,,,,b,,,(based on tag)
110, 6.30.25,DisFirst_reg,,-0.9041591320072333,,Dis_reg1,(based on tag),,1106,"dispref (3, bikub.wav)", 6.30.25,256065,,,,,b,,,(based on tag)
111, 6.30.25,DisFirst_reg,,-0.8771929824561403,,Dis_reg1,(based on tag),,1140,"dispref (32, todupe.wav)", 6.30.25,257355,,,,,p,,,(based on tag)
112, 6.30.25,DisFirst_reg,,-0.8382229673093042,,Dis_reg1,(based on tag),,1193,"dispref (20, gutope.wav)", 6.30.25,258784,,,,,p,,,(based on tag)
113, 6.30.25,DisFirst_reg,,-0.9337068160597572,,Dis_reg1,(based on tag),,1071,"dispref (12, dikepe.wav)", 6.30.25,260064,,,,,p,,,(based on tag)
114, 6.30.25,DisFirst_reg,,-1.0204081632653061,,Dis_reg1,(based on tag),,980,"dispref (27, tekub.wav)", 6.30.25,261354,,,,,b,,,(based on tag)
115, 6.30.25,DisFirst_reg,,-1.0845986984815619,,Dis_reg1,(based on tag),,922,"dispref (23, pigeb.wav)", 6.30.25,262424,,,,,b,,,(based on tag)
116, 6.30.25,DisFirst_reg,,-0.78125,,Dis_reg1,(based on tag),,1280,"dispref (24, pigepe.wav)", 6.30.25,263864,,,,,p,,,(based on tag)
117, 6.30.25,DisFirst_reg,,-0.8673026886383348,,Dis_reg1,(based on tag),,1153,"dispref (18, gotepe.wav)", 6.30.25,265163,,,,,p,,,(based on tag)
118, 6.30.25,DisFirst_reg,,-0.9718172983479106,,Dis_reg1,(based on tag),,1029,"dispref (5, bogeb.wav)", 6.30.25,266373,,,,,b,,,(based on tag)
119, 6.30.25,DisFirst_reg,,-0.7547169811320755,,Dis_reg1,(based on tag),,1325,"dispref (4, bikube.wav)", 6.30.25,267853,,,,,p,,,(based on tag)
120, 6.30.25,DisFirst_reg,,-0.9727626459143969,,Dis_reg1,(based on tag),,1028,"dispref (26, potipe.wav)", 6.30.25,269043,,,,,p,,,(based on tag)
121, 6.30.25,DisFirst_reg,,-0.08616232982939859,,Dis_reg1,(any response),,11606,Please take a b..., 6.30.25,279621,,,,,,,,(any response)
122, 6.30.25,DisFirst_reg,,-0.9363295880149812,,Dis_reg1,(based on tag),,1068,"dispref (17, goteb.wav)", 6.30.25,280861,,,,,b,,,(based on tag)
123, 6.30.25,DisFirst_reg,,-1.0615711252653928,,Dis_reg1,(based on tag),,942,"dispref (29, todib.wav)", 6.30.25,281960,,,,,b,,,(based on tag)
124, 6.30.25,DisFirst_reg,,-0.8169934640522876,,Dis_reg1,(based on tag),,1224,"dispref (16, dokupe.wav)", 6.30.25,283330,,,,,p,,,(based on tag)
125, 6.30.25,DisFirst_reg,,-0.9259259259259259,,Dis_reg1,(based on tag),,1080,"dispref (24, pigepe.wav)", 6.30.25,284600,,,,,p,,,(based on tag)
126, 6.30.25,DisFirst_reg,,-1.0427528675703859,,Dis_reg1,(based on tag),,959,"dispref (19, gutob.wav)", 6.30.25,285859,,,,,b,,,(based on tag)
127, 6.30.25,DisFirst_reg,,-1.1123470522803114,,Dis_reg1,(based on tag),,899,"dispref (3, bikub.wav)", 6.30.25,286919,,,,,b,,,(based on tag)
128, 6.30.25,DisFirst_reg,,-0.9794319294809011,,Dis_reg1,(based on tag),,1021,"dispref (25, potib.wav)", 6.30.25,288149,,,,,b,,,(based on tag)
129, 6.30.25,DisFirst_reg,,-0.8920606601248885,,Dis_reg1,(based on tag),,1121,"dispref (28, tekupe.wav)", 6.30.25,289469,,,,,p,,,(based on tag)
130, 6.30.25,DisFirst_reg,,-0.9302325581395349,,Dis_reg1,(based on tag),,1075,"dispref (22, pidope.wav)", 6.30.25,290809,,,,,p,,,(based on tag)
131, 6.30.25,DisFirst_reg,,-0.8810572687224669,,Dis_reg1,(based on tag),,1135,"dispref (8, bugipe.wav)", 6.30.25,292298,,,,,p,,,(based on tag)
132, 6.30.25,DisFirst_reg,,-0.9442870632672332,,Dis_reg1,(based on tag),,1059,"dispref (15, dokub.wav)", 6.30.25,293638,,,,,b,,,(based on tag)
133, 6.30.25,DisFirst_reg,,-1.1389521640091116,,Dis_reg1,(based on tag),,878,"dispref (5, bogeb.wav)", 6.30.25,294658,,,,,b,,,(based on tag)
134, 6.30.25,DisFirst_reg,,-1.1820330969267139,,Dis_reg1,(based on tag),,846,"dispref (11, dikeb.wav)", 6.30.25,295728,,,,,b,,,(based on tag)
135, 6.30.25,DisFirst_reg,,-0.819000819000819,,Dis_reg1,(based on tag),,1221,"dispref (10, degope.wav)", 6.30.25,297147,,,,,p,,,(based on tag)
136, 6.30.25,DisFirst_reg,,-0.8810572687224669,,Dis_reg1,(based on tag),,1135,"dispref (7, bugib.wav)", 6.30.25,298467,,,,,b,,,(based on tag)
137, 6.30.25,DisFirst_reg,,-0.8375209380234506,,Dis_reg1,(based on tag),,1194,"dispref (2, bidope.wav)", 6.30.25,299807,,,,,p,,,(based on tag)
138, 6.30.25,DisFirst_reg,,-0.9514747859181731,,Dis_reg1,(based on tag),,1051,"dispref (9, degob.wav)", 6.30.25,301027,,,,,b,,,(based on tag)
139, 6.30.25,DisFirst_reg,,-1.0695187165775402,,Dis_reg1,(based on tag),,935,"dispref (31, todub.wav)", 6.30.25,302117,,,,,b,,,(based on tag)
140, 6.30.25,DisFirst_reg,,-1.3157894736842106,,Dis_reg1,(based on tag),,760,"dispref (21, pidob.wav)", 6.30.25,303036,,,,,b,,,(based on tag)
141, 6.30.25,DisFirst_reg,,-0.8665511265164645,,Dis_reg1,(based on tag),,1154,"dispref (26, potipe.wav)", 6.30.25,304496,,,,,p,,,(based on tag)
142, 6.30.25,DisFirst_reg,,-0.7524454477050414,,Dis_reg1,(based on tag),,1329,"dispref (14, dogipe.wav)", 6.30.25,306076,,,,,p,,,(based on tag)
143, 6.30.25,DisFirst_reg,,-0.8976660682226212,,Dis_reg1,(based on tag),,1114,"dispref (23, pigeb.wav)", 6.30.25,307335,,,,,b,,,(based on tag)
144, 6.30.25,DisFirst_reg,,-0.7824726134585289,,Dis_reg1,(based on tag),,1278,"dispref (32, todupe.wav)", 6.30.25,308755,,,,,p,,,(based on tag)
145, 6.30.25,DisFirst_reg,,-0.8787346221441125,,Dis_reg1,(based on tag),,1138,"dispref (18, gotepe.wav)", 6.30.25,310035,,,,,p,,,(based on tag)
146, 6.30.25,DisFirst_reg,,-0.8756567425569177,,Dis_reg1,(based on tag),,1142,"dispref (12, dikepe.wav)", 6.30.25,311415,,,,,p,,,(based on tag)
147, 6.30.25,DisFirst_reg,,-0.9416195856873822,,Dis_reg1,(based on tag),,1062,"dispref (27, tekub.wav)", 6.30.25,312714,,,,,b,,,(based on tag)
148, 6.30.25,DisFirst_reg,,-0.8123476848090982,,Dis_reg1,(based on tag),,1231,"dispref (30, todipe.wav)", 6.30.25,314104,,,,,p,,,(based on tag)
149, 6.30.25,DisFirst_reg,,-0.8525149190110827,,Dis_reg1,(based on tag),,1173,"dispref (20, gutope.wav)", 6.30.25,315464,,,,,p,,,(based on tag)
150, 6.30.25,DisFirst_reg,,-0.7849293563579278,,Dis_reg1,(based on tag),,1274,"dispref (6, bogepe.wav)", 6.30.25,316974,,,,,p,,,(based on tag)
151, 6.30.25,DisFirst_reg,,-1.0080645161290323,,Dis_reg1,(based on tag),,992,"dispref (1, bidob.wav)", 6.30.25,318124,,,,,b,,,(based on tag)
152, 6.30.25,DisFirst_reg,,-0.7727975270479135,,Dis_reg1,(based on tag),,1294,"dispref (4, bikube.wav)", 6.30.25,319563,,,,,p,,,(based on tag)
153, 6.30.25,DisFirst_reg,,-0.8460236886632826,,Dis_reg1,(based on tag),,1182,"dispref (13, dogib.wav)", 6.30.25,320893,,,,,b,,,(based on tag)
154, 6.30.25,DisFirst_reg,,-0.12514078338130397,,Dis_reg1,(any response),,7991,Please take a b..., 6.30.25,327702,,,,,,,,(any response)
155, 6.30.25,DisFirst_reg,,-0.9727626459143969,,Dis_reg1,(based on tag),,1028,"dispref (31, todub.wav)", 6.30.25,328901,,,,,b,,,(based on tag)
156, 6.30.25,DisFirst_reg,,-0.7987220447284346,,Dis_reg1,(based on tag),,1252,"dispref (4, bikube.wav)", 6.30.25,330341,,,,,p,,,(based on tag)
157, 6.30.25,DisFirst_reg,,-1.0405827263267429,,Dis_reg1,(based on tag),,961,"dispref (19, gutob.wav)", 6.30.25,331501,,,,,b,,,(based on tag)
158, 6.30.25,DisFirst_reg,,-0.7530120481927711,,Dis_reg1,(based on tag),,1328,"dispref (26, potipe.wav)", 6.30.25,332981,,,,,p,,,(based on tag)
159, 6.30.25,DisFirst_reg,,-0.7092198581560284,,Dis_reg1,(based on tag),,1410,"dispref (9, degob.wav)", 6.30.25,334540,,,,,b,,,(based on tag)
160, 6.30.25,DisFirst_reg,,-0.724112961622013,,Dis_reg1,(based on tag),,1381,"dispref (22, pidope.wav)", 6.30.25,336070,,,,,p,,,(based on tag)
161, 6.30.25,DisFirst_reg,,-0.8787346221441125,,Dis_reg1,(based on tag),,1138,"dispref (30, todipe.wav)", 6.30.25,337350,,,,,p,,,(based on tag)
162, 6.30.25,DisFirst_reg,,-0.916590284142988,,Dis_reg1,(based on tag),,1091,"dispref (5, bogeb.wav)", 6.30.25,338739,,,,,b,,,(based on tag)
163, 6.30.25,DisFirst_reg,,-1.0204081632653061,,Dis_reg1,(based on tag),,980,"dispref (11, dikeb.wav)", 6.30.25,339860,,,,,b,,,(based on tag)
164, 6.30.25,DisFirst_reg,,-0.6548788474132285,,Dis_reg1,(based on tag),,1527,"dispref (20, gutope.wav)", 6.30.25,341579,,,,,p,,,(based on tag)
165, 6.30.25,DisFirst_reg,,-0.7955449482895783,,Dis_reg1,(based on tag),,1257,"dispref (28, tekupe.wav)", 6.30.25,343039,,,,,p,,,(based on tag)
166, 6.30.25,DisFirst_reg,,-0.6958942240779401,,Dis_reg1,(based on tag),,1437,"dispref (12, dikepe.wav)", 6.30.25,344619,,,,,p,,,(based on tag)
167, 6.30.25,DisFirst_reg,,-1.0050251256281406,,Dis_reg1,(based on tag),,995,"dispref (23, pigeb.wav)", 6.30.25,345769,,,,,b,,,(based on tag)
168, 6.30.25,DisFirst_reg,,-1.0638297872340425,,Dis_reg1,(based on tag),,940,"dispref (29, todib.wav)", 6.30.25,346858,,,,,b,,,(based on tag)
169, 6.30.25,DisFirst_reg,,-0.8431703204047217,,Dis_reg1,(based on tag),,1186,"dispref (14, dogipe.wav)", 6.30.25,348198,,,,,p,,,(based on tag)
170, 6.30.25,DisFirst_reg,,-0.8650519031141869,,Dis_reg1,(based on tag),,1156,"dispref (1, bidob.wav)", 6.30.25,349578,,,,,b,,,(based on tag)
171, 6.30.25,DisFirst_reg,,-0.9578544061302682,,Dis_reg1,(based on tag),,1044,"dispref (17, goteb.wav)", 6.30.25,350768,,,,,b,,,(based on tag)
172, 6.30.25,DisFirst_reg,,-1.0493179433368311,,Dis_reg1,(based on tag),,953,"dispref (25, potib.wav)", 6.30.25,351867,,,,,b,,,(based on tag)
173, 6.30.25,DisFirst_reg,,-1.183431952662722,,Dis_reg1,(based on tag),,845,"dispref (15, dokub.wav)", 6.30.25,352867,,,,,b,,,(based on tag)
174, 6.30.25,DisFirst_reg,,-0.8110300081103001,,Dis_reg1,(based on tag),,1233,"dispref (2, bidope.wav)", 6.30.25,354297,,,,,p,,,(based on tag)
175, 6.30.25,DisFirst_reg,,-0.9433962264150944,,Dis_reg1,(based on tag),,1060,"dispref (16, dokupe.wav)", 6.30.25,355527,,,,,p,,,(based on tag)
176, 6.30.25,DisFirst_reg,,-1.0050251256281406,,Dis_reg1,(based on tag),,995,"dispref (7, bugib.wav)", 6.30.25,356876,,,,,b,,,(based on tag)
177, 6.30.25,DisFirst_reg,,-1.1806375442739079,,Dis_reg1,(based on tag),,847,"dispref (13, dogib.wav)", 6.30.25,357916,,,,,b,,,(based on tag)
178, 6.30.25,DisFirst_reg,,-0.9267840593141798,,Dis_reg1,(based on tag),,1079,"dispref (18, gotepe.wav)", 6.30.25,359196,,,,,p,,,(based on tag)
179, 6.30.25,DisFirst_reg,,-0.9852216748768473,,Dis_reg1,(based on tag),,1015,"dispref (8, bugipe.wav)", 6.30.25,360466,,,,,p,,,(based on tag)
180, 6.30.25,DisFirst_reg,,-0.8084074373484236,,Dis_reg1,(based on tag),,1237,"dispref (24, pigepe.wav)", 6.30.25,362106,,,,,p,,,(based on tag)
181, 6.30.25,DisFirst_reg,,-0.6406149903907752,,Dis_reg1,(based on tag),,1561,"dispref (27, tekub.wav)", 6.30.25,363855,,,,,b,,,(based on tag)
182, 6.30.25,DisFirst_reg,,-0.7680491551459293,,Dis_reg1,(based on tag),,1302,"dispref (10, degope.wav)", 6.30.25,365385,,,,,p,,,(based on tag)
183, 6.30.25,DisFirst_reg,,-0.7256894049346879,,Dis_reg1,(based on tag),,1378,"dispref (3, bikub.wav)", 6.30.25,366905,,,,,b,,,(based on tag)
184, 6.30.25,DisFirst_reg,,-0.601684717208183,,Dis_reg1,(based on tag),,1662,"dispref (6, bogepe.wav)", 6.30.25,368754,,,,,p,,,(based on tag)
185, 6.30.25,DisFirst_reg,,-0.7173601147776184,,Dis_reg1,(based on tag),,1394,"dispref (32, todupe.wav)", 6.30.25,370334,,,,,p,,,(based on tag)
186, 6.30.25,DisFirst_reg,,-0.5608524957936063,,Dis_reg1,(based on tag),,1783,"dispref (21, pidob.wav)", 6.30.25,372264,,,,,b,,,(based on tag)
187, 6.30.25,DisFirst_reg,,-0.076103500761035,,Dis_reg1,(any response),,13140,Please take a b..., 6.30.25,383621,,,,,,,,(any response)
188, 6.30.25,DisFirst_reg,,-0.6868131868131868,,Dis_reg1,(based on tag),,1456,"Pref (28, pigebe.wav)", 6.30.25,385261,,,,,b,,,(based on tag)
189, 6.30.25,DisFirst_reg,,-0.6779661016949152,,Dis_reg1,(based on tag),,1475,"Pref (1, bidop.wav)", 6.30.25,386891,,,,,p,,,(based on tag)
190, 6.30.25,DisFirst_reg,,-0.45599635202918376,,Dis_reg1,(based on tag),,2193,"Pref (31, todibe.wav)", 6.30.25,389291,,,,,b,,,(based on tag)
191, 6.30.25,DisFirst_reg,,-0.5521811154058531,,Dis_reg1,(based on tag),,1811,"Pref (25, gotebe.wav)", 6.30.25,391290,,,,,b,,,(based on tag)
192, 6.30.25,DisFirst_reg,,-0.5382131324004306,,Dis_reg1,(based on tag),,1858,"Pref (7, dogip.wav)", 6.30.25,393360,,,,,p,,,(based on tag)
193, 6.30.25,DisFirst_reg,,-0.6574621959237343,,Dis_reg1,(based on tag),,1521,"Pref (19, bogebe.wav)", 6.30.25,395069,,,,,b,,,(based on tag)
194, 6.30.25,DisFirst_reg,,-0.746268656716418,,Dis_reg1,(based on tag),,1340,"Pref (11, pidop.wav)", 6.30.25,396549,,,,,p,,,(based on tag)
195, 6.30.25,DisFirst_reg,,-0.8680555555555556,,Dis_reg1,(based on tag),,1152,"Pref (10, gutop.wav)", 6.30.25,397899,,,,,p,,,(based on tag)
196, 6.30.25,DisFirst_reg,,-0.6501950585175552,,Dis_reg1,(based on tag),,1538,"Pref (30, tekube.wav)", 6.30.25,399589,,,,,b,,,(based on tag)
197, 6.30.25,DisFirst_reg,,-0.7336757153338225,,Dis_reg1,(based on tag),,1363,"Pref (20, bugibe.wav)", 6.30.25,401098,,,,,b,,,(based on tag)
198, 6.30.25,DisFirst_reg,,-0.9578544061302682,,Dis_reg1,(based on tag),,1044,"Pref (12, pigep.wav)", 6.30.25,402288,,,,,p,,,(based on tag)
199, 6.30.25,DisFirst_reg,,-0.6747638326585695,,Dis_reg1,(based on tag),,1482,"Pref (32, todube.wav)", 6.30.25,403918,,,,,b,,,(based on tag)
200, 6.30.25,DisFirst_reg,,-0.6793478260869565,,Dis_reg1,(based on tag),,1472,"Pref (18, bikube.wav)", 6.30.25,405548,,,,,b,,,(based on tag)
201, 6.30.25,DisFirst_reg,,-0.648508430609598,,Dis_reg1,(based on tag),,1542,"Pref (29, potibe.wav)", 6.30.25,407277,,,,,b,,,(based on tag)
202, 6.30.25,DisFirst_reg,,-0.8250825082508251,,Dis_reg1,(based on tag),,1212,"Pref (24, dokube.wav)", 6.30.25,408687,,,,,b,,,(based on tag)
203, 6.30.25,DisFirst_reg,,-0.7662835249042146,,Dis_reg1,(based on tag),,1305,"Pref (15, todip.wav)", 6.30.25,410137,,,,,p,,,(based on tag)
204, 6.30.25,DisFirst_reg,,-0.8680555555555556,,Dis_reg1,(based on tag),,1152,"Pref (4, bugip.wav)", 6.30.25,411436,,,,,p,,,(based on tag)
205, 6.30.25,DisFirst_reg,,-0.32894736842105265,,Dis_reg1,(based on tag),,3040,"Pref (27, pidobe.wav)", 6.30.25,414636,,,,,b,,,(based on tag)
206, 6.30.25,DisFirst_reg,,-0.687757909215956,,Dis_reg1,(based on tag),,1454,"Pref (26, gutobe.wav)", 6.30.25,416265,,,,,b,,,(based on tag)
207, 6.30.25,DisFirst_reg,,-0.7168458781362007,,Dis_reg1,(based on tag),,1395,"Pref (23, dogibe.wav)", 6.30.25,417805,,,,,b,,,(based on tag)
208, 6.30.25,DisFirst_reg,,-0.8802816901408451,,Dis_reg1,(based on tag),,1136,"Pref (16, todup.wav)", 6.30.25,419145,,,,,p,,,(based on tag)
209, 6.30.25,DisFirst_reg,,-0.9930486593843099,,Dis_reg1,(based on tag),,1007,"Pref (2, bikup.wav)", 6.30.25,420315,,,,,p,,,(based on tag)
210, 6.30.25,DisFirst_reg,,-0.7485029940119761,,Dis_reg1,(based on tag),,1336,"Pref (21, degobe.wav)", 6.30.25,421794,,,,,b,,,(based on tag)
211, 6.30.25,DisFirst_reg,,-0.8680555555555556,,Dis_reg1,(based on tag),,1152,"Pref (13, potip.wav)", 6.30.25,423104,,,,,p,,,(based on tag)
212, 6.30.25,DisFirst_reg,,-0.8291873963515755,,Dis_reg1,(based on tag),,1206,"Pref (17, bidobe.wav)", 6.30.25,424454,,,,,b,,,(based on tag)
213, 6.30.25,DisFirst_reg,,-0.5714285714285714,,Dis_reg1,(based on tag),,1750,"Pref (8, dokup.wav)", 6.30.25,426344,,,,,p,,,(based on tag)
214, 6.30.25,DisFirst_reg,,-0.7905138339920948,,Dis_reg1,(based on tag),,1265,"Pref (5, degop.wav)", 6.30.25,427813,,,,,p,,,(based on tag)
215, 6.30.25,DisFirst_reg,,-0.9033423667570009,,Dis_reg1,(based on tag),,1107,"Pref (9, gotep.wav)", 6.30.25,429093,,,,,p,,,(based on tag)
216, 6.30.25,DisFirst_reg,,-0.8826125330979699,,Dis_reg1,(based on tag),,1133,"Pref (14, tekup.wav)", 6.30.25,430383,,,,,p,,,(based on tag)
217, 6.30.25,DisFirst_reg,,-0.9363295880149812,,Dis_reg1,(based on tag),,1068,"Pref (6, dikep.wav)", 6.30.25,431603,,,,,p,,,(based on tag)
218, 6.30.25,DisFirst_reg,,-0.4631773969430292,,Dis_reg1,(based on tag),,2159,"Pref (22, dikebe.wav)", 6.30.25,433922,,,,,b,,,(based on tag)
219, 6.30.25,DisFirst_reg,,-1.091703056768559,,Dis_reg1,(based on tag),,916,"Pref (3, bogep.wav)", 6.30.25,435022,,,,,p,,,(based on tag)
220, 6.30.25,DisFirst_reg,,-0.06696129637069774,,Dis_reg1,(any response),,14934,Please take a b..., 6.30.25,449040,,,,,,,,(any response)
221, 6.30.25,DisFirst_reg,,-0.5200208008320333,,Dis_reg1,(based on tag),,1923,"Pref (31, todibe.wav)", 6.30.25,451129,,,,,b,,,(based on tag)
222, 6.30.25,DisFirst_reg,,-0.9242144177449169,,Dis_reg1,(based on tag),,1082,"Pref (1, bidop.wav)", 6.30.25,452399,,,,,p,,,(based on tag)
223, 6.30.25,DisFirst_reg,,-0.9891196834817013,,Dis_reg1,(based on tag),,1011,"Pref (12, pigep.wav)", 6.30.25,453608,,,,,p,,,(based on tag)
224, 6.30.25,DisFirst_reg,,-0.8880994671403197,,Dis_reg1,(based on tag),,1126,"Pref (14, tekup.wav)", 6.30.25,454928,,,,,p,,,(based on tag)
225, 6.30.25,DisFirst_reg,,-0.7092198581560284,,Dis_reg1,(based on tag),,1410,"Pref (28, pigebe.wav)", 6.30.25,456498,,,,,b,,,(based on tag)
226, 6.30.25,DisFirst_reg,,-0.7189072609633357,,Dis_reg1,(based on tag),,1391,"Pref (3, bogep.wav)", 6.30.25,458038,,,,,p,,,(based on tag)
227, 6.30.25,DisFirst_reg,,-0.7342143906020558,,Dis_reg1,(based on tag),,1362,"Pref (23, dogibe.wav)", 6.30.25,459587,,,,,b,,,(based on tag)
228, 6.30.25,DisFirst_reg,,-0.8888888888888888,,Dis_reg1,(based on tag),,1125,"Pref (7, dogip.wav)", 6.30.25,460857,,,,,p,,,(based on tag)
229, 6.30.25,DisFirst_reg,,-0.7220216606498195,,Dis_reg1,(based on tag),,1385,"Pref (6, dikep.wav)", 6.30.25,462387,,,,,p,,,(based on tag)
230, 6.30.25,DisFirst_reg,,-0.831946755407654,,Dis_reg1,(based on tag),,1202,"Pref (24, dokube.wav)", 6.30.25,463726,,,,,b,,,(based on tag)
231, 6.30.25,DisFirst_reg,,-0.942507068803016,,Dis_reg1,(based on tag),,1061,"Pref (4, bugip.wav)", 6.30.25,464946,,,,,p,,,(based on tag)
232, 6.30.25,DisFirst_reg,,-0.9276437847866419,,Dis_reg1,(based on tag),,1078,"Pref (10, gutop.wav)", 6.30.25,466166,,,,,p,,,(based on tag)
233, 6.30.25,DisFirst_reg,,-0.49677098857426727,,Dis_reg1,(based on tag),,2013,"Pref (19, bogebe.wav)", 6.30.25,468326,,,,,b,,,(based on tag)
234, 6.30.25,DisFirst_reg,,-0.5668934240362812,,Dis_reg1,(based on tag),,1764,"Pref (2, bikup.wav)", 6.30.25,470285,,,,,p,,,(based on tag)
235, 6.30.25,DisFirst_reg,,-0.5136106831022085,,Dis_reg1,(based on tag),,1947,"Pref (18, bikube.wav)", 6.30.25,472375,,,,,b,,,(based on tag)
236, 6.30.25,DisFirst_reg,,-0.7751937984496124,,Dis_reg1,(based on tag),,1290,"Pref (26, gutobe.wav)", 6.30.25,473805,,,,,b,,,(based on tag)
237, 6.30.25,DisFirst_reg,,-0.779423226812159,,Dis_reg1,(based on tag),,1283,"Pref (29, potibe.wav)", 6.30.25,475275,,,,,b,,,(based on tag)
238, 6.30.25,DisFirst_reg,,-0.6983240223463687,,Dis_reg1,(based on tag),,1432,"Pref (9, gotep.wav)", 6.30.25,476874,,,,,p,,,(based on tag)
239, 6.30.25,DisFirst_reg,,-0.8431703204047217,,Dis_reg1,(based on tag),,1186,"Pref (5, degop.wav)", 6.30.25,478254,,,,,p,,,(based on tag)
240, 6.30.25,DisFirst_reg,,-0.8718395815170009,,Dis_reg1,(based on tag),,1147,"Pref (15, todip.wav)", 6.30.25,479544,,,,,p,,,(based on tag)
241, 6.30.25,DisFirst_reg,,-0.8944543828264758,,Dis_reg1,(based on tag),,1118,"Pref (8, dokup.wav)", 6.30.25,480823,,,,,p,,,(based on tag)
242, 6.30.25,DisFirst_reg,,-0.4800768122899664,,Dis_reg1,(based on tag),,2083,"Pref (30, tekube.wav)", 6.30.25,483063,,,,,b,,,(based on tag)
243, 6.30.25,DisFirst_reg,,-0.5787037037037037,,Dis_reg1,(based on tag),,1728,"Pref (22, dikebe.wav)", 6.30.25,484933,,,,,b,,,(based on tag)
244, 6.30.25,DisFirst_reg,,-0.4750593824228028,,Dis_reg1,(based on tag),,2105,"Pref (25, gotebe.wav)", 6.30.25,487212,,,,,b,,,(based on tag)
245, 6.30.25,DisFirst_reg,,-0.5555555555555556,,Dis_reg1,(based on tag),,1800,"Pref (20, bugibe.wav)", 6.30.25,489192,,,,,b,,,(based on tag)
246, 6.30.25,DisFirst_reg,,-0.8547008547008547,,Dis_reg1,(based on tag),,1170,"Pref (21, degobe.wav)", 6.30.25,490562,,,,,b,,,(based on tag)
247, 6.30.25,DisFirst_reg,,-0.693000693000693,,Dis_reg1,(based on tag),,1443,"Pref (27, pidobe.wav)", 6.30.25,492181,,,,,b,,,(based on tag)
248, 6.30.25,DisFirst_reg,,-0.9337068160597572,,Dis_reg1,(based on tag),,1071,"Pref (11, pidop.wav)", 6.30.25,493411,,,,,p,,,(based on tag)
249, 6.30.25,DisFirst_reg,,-0.7662835249042146,,Dis_reg1,(based on tag),,1305,"Pref (32, todube.wav)", 6.30.25,494881,,,,,b,,,(based on tag)
250, 6.30.25,DisFirst_reg,,-0.727802037845706,,Dis_reg1,(based on tag),,1374,"Pref (17, bidobe.wav)", 6.30.25,496410,,,,,b,,,(based on tag)
251, 6.30.25,DisFirst_reg,,-43.47826086956522,,Dis_reg1,(based on tag),,23,"Pref (13, potip.wav)", 6.30.25,496581,,,,,p,,,(based on tag)
252, 6.30.25,DisFirst_reg,,-0.3250975292587776,,Dis_reg1,(based on tag),,3076,"Pref (16, todup.wav)", 6.30.25,500690,,,,,p,,,(based on tag)
253, 6.30.25,DisFirst_reg,,-0.06805498843065197,,Dis_reg1,(any response),,14694,Please take a b..., 6.30.25,512308,,,,,,,,(any response)
254, 6.30.25,DisFirst_reg,,-0.6925207756232687,,Dis_reg1,(based on tag),,1444,"Pref (25, gotebe.wav)", 6.30.25,513917,,,,,b,,,(based on tag)
255, 6.30.25,DisFirst_reg,,-1.0683760683760684,,Dis_reg1,(based on tag),,936,"Pref (16, todup.wav)", 6.30.25,515037,,,,,p,,,(based on tag)
256, 6.30.25,DisFirst_reg,,-0.45871559633027525,,Dis_reg1,(based on tag),,2180,"Pref (2, bikup.wav)", 6.30.25,517407,,,,,p,,,(based on tag)
257, 6.30.25,DisFirst_reg,,-0.5020080321285141,,Dis_reg1,(based on tag),,1992,"Pref (20, bugibe.wav)", 6.30.25,519596,,,,,b,,,(based on tag)
258, 6.30.25,DisFirst_reg,,-0.8944543828264758,,Dis_reg1,(based on tag),,1118,"Pref (9, gotep.wav)", 6.30.25,520856,,,,,p,,,(based on tag)
259, 6.30.25,DisFirst_reg,,-0.5396654074473827,,Dis_reg1,(based on tag),,1853,"Pref (19, bogebe.wav)", 6.30.25,522866,,,,,b,,,(based on tag)
260, 6.30.25,DisFirst_reg,,-0.7923930269413629,,Dis_reg1,(based on tag),,1262,"Pref (7, dogip.wav)", 6.30.25,524325,,,,,p,,,(based on tag)
261, 6.30.25,DisFirst_reg,,-0.44583147570218457,,Dis_reg1,(based on tag),,2243,"Pref (23, dogibe.wav)", 6.30.25,526755,,,,,b,,,(based on tag)
262, 6.30.25,DisFirst_reg,,-0.9149130832570905,,Dis_reg1,(based on tag),,1093,"Pref (6, dikep.wav)", 6.30.25,528025,,,,,p,,,(based on tag)
263, 6.30.25,DisFirst_reg,,-0.8382229673093042,,Dis_reg1,(based on tag),,1193,"Pref (12, pigep.wav)", 6.30.25,529374,,,,,p,,,(based on tag)
264, 6.30.25,DisFirst_reg,,-0.835421888053467,,Dis_reg1,(based on tag),,1197,"Pref (10, gutop.wav)", 6.30.25,530734,,,,,p,,,(based on tag)
265, 6.30.25,DisFirst_reg,,-0.5865102639296188,,Dis_reg1,(based on tag),,1705,"Pref (11, pidop.wav)", 6.30.25,532594,,,,,p,,,(based on tag)
266, 6.30.25,DisFirst_reg,,-0.4526935264825713,,Dis_reg1,(based on tag),,2209,"Pref (1, bidop.wav)", 6.30.25,534974,,,,,p,,,(based on tag)
267, 6.30.25,DisFirst_reg,,-0.5643340857787811,,Dis_reg1,(based on tag),,1772,"Pref (18, bikube.wav)", 6.30.25,536983,,,,,b,,,(based on tag)
268, 6.30.25,DisFirst_reg,,-0.8748906386701663,,Dis_reg1,(based on tag),,1143,"Pref (32, todube.wav)", 6.30.25,538313,,,,,b,,,(based on tag)
269, 6.30.25,DisFirst_reg,,-0.8968609865470852,,Dis_reg1,(based on tag),,1115,"Pref (24, dokube.wav)", 6.30.25,539673,,,,,b,,,(based on tag)
270, 6.30.25,DisFirst_reg,,-0.9267840593141798,,Dis_reg1,(based on tag),,1079,"Pref (29, potibe.wav)", 6.30.25,540982,,,,,b,,,(based on tag)
271, 6.30.25,DisFirst_reg,,-1.001001001001001,,Dis_reg1,(based on tag),,999,"Pref (26, gutobe.wav)", 6.30.25,542262,,,,,b,,,(based on tag)
272, 6.30.25,DisFirst_reg,,-0.929368029739777,,Dis_reg1,(based on tag),,1076,"Pref (15, todip.wav)", 6.30.25,543642,,,,,p,,,(based on tag)
273, 6.30.25,DisFirst_reg,,-0.8912655971479501,,Dis_reg1,(based on tag),,1122,"Pref (4, bugip.wav)", 6.30.25,544962,,,,,p,,,(based on tag)
274, 6.30.25,DisFirst_reg,,-1.0298661174047374,,Dis_reg1,(based on tag),,971,"Pref (5, degop.wav)", 6.30.25,546131,,,,,p,,,(based on tag)
275, 6.30.25,DisFirst_reg,,-0.5521811154058531,,Dis_reg1,(based on tag),,1811,"Pref (28, pigebe.wav)", 6.30.25,548141,,,,,b,,,(based on tag)
276, 6.30.25,DisFirst_reg,,-0.916590284142988,,Dis_reg1,(based on tag),,1091,"Pref (8, dokup.wav)", 6.30.25,549411,,,,,p,,,(based on tag)
277, 6.30.25,DisFirst_reg,,-1.0582010582010581,,Dis_reg1,(based on tag),,945,"Pref (14, tekup.wav)", 6.30.25,550550,,,,,p,,,(based on tag)
278, 6.30.25,DisFirst_reg,,-0.4526935264825713,,Dis_reg1,(based on tag),,2209,"Pref (31, todibe.wav)", 6.30.25,552900,,,,,b,,,(based on tag)
279, 6.30.25,DisFirst_reg,,-0.8554319931565441,,Dis_reg1,(based on tag),,1169,"Pref (30, tekube.wav)", 6.30.25,554260,,,,,b,,,(based on tag)
280, 6.30.25,DisFirst_reg,,-0.8787346221441125,,Dis_reg1,(based on tag),,1138,"Pref (17, bidobe.wav)", 6.30.25,555610,,,,,b,,,(based on tag)
281, 6.30.25,DisFirst_reg,,-0.8453085376162299,,Dis_reg1,(based on tag),,1183,"Pref (21, degobe.wav)", 6.30.25,556989,,,,,b,,,(based on tag)
282, 6.30.25,DisFirst_reg,,-0.8880994671403197,,Dis_reg1,(based on tag),,1126,"Pref (27, pidobe.wav)", 6.30.25,558319,,,,,b,,,(based on tag)
283, 6.30.25,DisFirst_reg,,-0.9433962264150944,,Dis_reg1,(based on tag),,1060,"Pref (22, dikebe.wav)", 6.30.25,559639,,,,,b,,,(based on tag)
284, 6.30.25,DisFirst_reg,,-1.1198208286674132,,Dis_reg1,(based on tag),,893,"Pref (3, bogep.wav)", 6.30.25,560839,,,,,p,,,(based on tag)
285, 6.30.25,DisFirst_reg,,-1.095290251916758,,Dis_reg1,(based on tag),,913,"Pref (13, potip.wav)", 6.30.25,561928,,,,,p,,,(based on tag)
286, 6.30.25,DisFirst_reg,,-0.4144218814753419,,Dis_reg1,(any response),,2413,Please take a b..., 6.30.25,563428,,,,,,,,(any response)
287, 6.30.25,DisFirst_reg,,-0.7818608287724785,,Dis_reg1,(based on tag),,1279,"Pref (2, bikup.wav)", 6.30.25,564888,,,,,p,,,(based on tag)
288, 6.30.25,DisFirst_reg,,-0.8136696501220505,,Dis_reg1,(based on tag),,1229,"Pref (21, degobe.wav)", 6.30.25,566278,,,,,b,,,(based on tag)
289, 6.30.25,DisFirst_reg,,-1.0493179433368311,,Dis_reg1,(based on tag),,953,"Pref (27, pidobe.wav)", 6.30.25,567427,,,,,b,,,(based on tag)
290, 6.30.25,DisFirst_reg,,-1.0362694300518134,,Dis_reg1,(based on tag),,965,"Pref (9, gotep.wav)", 6.30.25,568827,,,,,p,,,(based on tag)
291, 6.30.25,DisFirst_reg,,-0.966183574879227,,Dis_reg1,(based on tag),,1035,"Pref (7, dogip.wav)", 6.30.25,570037,,,,,p,,,(based on tag)
292, 6.30.25,DisFirst_reg,,-0.9727626459143969,,Dis_reg1,(based on tag),,1028,"Pref (5, degop.wav)", 6.30.25,571217,,,,,p,,,(based on tag)
293, 6.30.25,DisFirst_reg,,-0.8149959250203749,,Dis_reg1,(based on tag),,1227,"Pref (31, todibe.wav)", 6.30.25,572606,,,,,b,,,(based on tag)
294, 6.30.25,DisFirst_reg,,-0.6476683937823834,,Dis_reg1,(based on tag),,1544,"Pref (12, pigep.wav)", 6.30.25,574306,,,,,p,,,(based on tag)
295, 6.30.25,DisFirst_reg,,-0.5313496280552603,,Dis_reg1,(based on tag),,1882,"Pref (17, bidobe.wav)", 6.30.25,576386,,,,,b,,,(based on tag)
296, 6.30.25,DisFirst_reg,,-0.594883997620464,,Dis_reg1,(based on tag),,1681,"Pref (3, bogep.wav)", 6.30.25,578305,,,,,p,,,(based on tag)
297, 6.30.25,DisFirst_reg,,-0.7440476190476191,,Dis_reg1,(based on tag),,1344,"Pref (1, bidop.wav)", 6.30.25,579865,,,,,p,,,(based on tag)
298, 6.30.25,DisFirst_reg,,-1.037344398340249,,Dis_reg1,(based on tag),,964,"Pref (11, pidop.wav)", 6.30.25,580985,,,,,p,,,(based on tag)
299, 6.30.25,DisFirst_reg,,-1.002004008016032,,Dis_reg1,(based on tag),,998,"Pref (6, dikep.wav)", 6.30.25,582135,,,,,p,,,(based on tag)
300, 6.30.25,DisFirst_reg,,-0.5467468562055768,,Dis_reg1,(based on tag),,1829,"Pref (22, dikebe.wav)", 6.30.25,584134,,,,,b,,,(based on tag)
301, 6.30.25,DisFirst_reg,,-0.8547008547008547,,Dis_reg1,(based on tag),,1170,"Pref (20, bugibe.wav)", 6.30.25,585444,,,,,b,,,(based on tag)
302, 6.30.25,DisFirst_reg,,-0.7501875468867217,,Dis_reg1,(based on tag),,1333,"Pref (32, todube.wav)", 6.30.25,587024,,,,,b,,,(based on tag)
303, 6.30.25,DisFirst_reg,,-0.6406149903907752,,Dis_reg1,(based on tag),,1561,"Pref (13, potip.wav)", 6.30.25,588784,,,,,p,,,(based on tag)
304, 6.30.25,DisFirst_reg,,-1.1111111111111112,,Dis_reg1,(based on tag),,900,"Pref (10, gutop.wav)", 6.30.25,589863,,,,,p,,,(based on tag)
305, 6.30.25,DisFirst_reg,,-0.9066183136899365,,Dis_reg1,(based on tag),,1103,"Pref (16, todup.wav)", 6.30.25,591133,,,,,p,,,(based on tag)
306, 6.30.25,DisFirst_reg,,-0.8680555555555556,,Dis_reg1,(based on tag),,1152,"Pref (30, tekube.wav)", 6.30.25,592493,,,,,b,,,(based on tag)
307, 6.30.25,DisFirst_reg,,-0.9569377990430622,,Dis_reg1,(based on tag),,1045,"Pref (8, dokup.wav)", 6.30.25,593762,,,,,p,,,(based on tag)
308, 6.30.25,DisFirst_reg,,-0.9541984732824428,,Dis_reg1,(based on tag),,1048,"Pref (4, bugip.wav)", 6.30.25,594962,,,,,p,,,(based on tag)
309, 6.30.25,DisFirst_reg,,-0.7581501137225171,,Dis_reg1,(based on tag),,1319,"Pref (24, dokube.wav)", 6.30.25,596442,,,,,b,,,(based on tag)
310, 6.30.25,DisFirst_reg,,-0.8787346221441125,,Dis_reg1,(based on tag),,1138,"Pref (26, gutobe.wav)", 6.30.25,597732,,,,,b,,,(based on tag)
311, 6.30.25,DisFirst_reg,,-0.8496176720475785,,Dis_reg1,(based on tag),,1177,"Pref (23, dogibe.wav)", 6.30.25,599081,,,,,b,,,(based on tag)
312, 6.30.25,DisFirst_reg,,-0.8984725965858041,,Dis_reg1,(based on tag),,1113,"Pref (18, bikube.wav)", 6.30.25,600391,,,,,b,,,(based on tag)
313, 6.30.25,DisFirst_reg,,-0.8904719501335708,,Dis_reg1,(based on tag),,1123,"Pref (28, pigebe.wav)", 6.30.25,601781,,,,,b,,,(based on tag)
314, 6.30.25,DisFirst_reg,,-0.9852216748768473,,Dis_reg1,(based on tag),,1015,"Pref (19, bogebe.wav)", 6.30.25,602971,,,,,b,,,(based on tag)
315, 6.30.25,DisFirst_reg,,-0.9813542688910697,,Dis_reg1,(based on tag),,1019,"Pref (15, todip.wav)", 6.30.25,604221,,,,,p,,,(based on tag)
316, 6.30.25,DisFirst_reg,,-0.6191950464396285,,Dis_reg1,(based on tag),,1615,"Pref (25, gotebe.wav)", 6.30.25,605980,,,,,b,,,(based on tag)
317, 6.30.25,DisFirst_reg,,-0.8857395925597874,,Dis_reg1,(based on tag),,1129,"Pref (29, potibe.wav)", 6.30.25,607260,,,,,b,,,(based on tag)
318, 6.30.25,DisFirst_reg,,-0.9216589861751152,,Dis_reg1,(based on tag),,1085,"Pref (14, tekup.wav)", 6.30.25,608550,,,,,p,,,(based on tag)
319, 6.30.25,DisFirst_reg,,-0.39447731755424065,,Dis_reg1,(any response),,2535,Please take a b..., 6.30.25,610000,,,,,,,,(any response)
320, 6.30.25,DisFirst_reg,,-1.0638297872340425,,Dis_reg1,(based on tag),,940,"Pref (8, dokup.wav)", 6.30.25,611119,,,,,p,,,(based on tag)
321, 6.30.25,DisFirst_reg,,-0.8375209380234506,,Dis_reg1,(based on tag),,1194,"Pref (31, todibe.wav)", 6.30.25,612459,,,,,b,,,(based on tag)
322, 6.30.25,DisFirst_reg,,-0.9871668311944719,,Dis_reg1,(based on tag),,1013,"Pref (5, degop.wav)", 6.30.25,613649,,,,,p,,,(based on tag)
323, 6.30.25,DisFirst_reg,,-0.8438818565400844,,Dis_reg1,(based on tag),,1185,"Pref (21, degobe.wav)", 6.30.25,614989,,,,,b,,,(based on tag)
324, 6.30.25,DisFirst_reg,,-0.9442870632672332,,Dis_reg1,(based on tag),,1059,"Pref (19, bogebe.wav)", 6.30.25,616208,,,,,b,,,(based on tag)
325, 6.30.25,DisFirst_reg,,-1.050420168067227,,Dis_reg1,(based on tag),,952,"Pref (28, pigebe.wav)", 6.30.25,617348,,,,,b,,,(based on tag)
326, 6.30.25,DisFirst_reg,,-1.1123470522803114,,Dis_reg1,(based on tag),,899,"Pref (16, todup.wav)", 6.30.25,618588,,,,,p,,,(based on tag)
327, 6.30.25,DisFirst_reg,,-0.8787346221441125,,Dis_reg1,(based on tag),,1138,"Pref (30, tekube.wav)", 6.30.25,619888,,,,,b,,,(based on tag)
328, 6.30.25,DisFirst_reg,,-1.0362694300518134,,Dis_reg1,(based on tag),,965,"Pref (13, potip.wav)", 6.30.25,621087,,,,,p,,,(based on tag)
329, 6.30.25,DisFirst_reg,,-0.7457121551081283,,Dis_reg1,(based on tag),,1341,"Pref (24, dokube.wav)", 6.30.25,622587,,,,,b,,,(based on tag)
330, 6.30.25,DisFirst_reg,,-0.7727975270479135,,Dis_reg1,(based on tag),,1294,"Pref (18, bikube.wav)", 6.30.25,624047,,,,,b,,,(based on tag)
331, 6.30.25,DisFirst_reg,,-0.8613264427217916,,Dis_reg1,(based on tag),,1161,"Pref (12, pigep.wav)", 6.30.25,625357,,,,,p,,,(based on tag)
332, 6.30.25,DisFirst_reg,,-0.9950248756218906,,Dis_reg1,(based on tag),,1005,"Pref (3, bogep.wav)", 6.30.25,626567,,,,,p,,,(based on tag)
333, 6.30.25,DisFirst_reg,,-0.7524454477050414,,Dis_reg1,(based on tag),,1329,"Pref (22, dikebe.wav)", 6.30.25,628056,,,,,b,,,(based on tag)
334, 6.30.25,DisFirst_reg,,-0.8431703204047217,,Dis_reg1,(based on tag),,1186,"Pref (14, tekup.wav)", 6.30.25,629396,,,,,p,,,(based on tag)
335, 6.30.25,DisFirst_reg,,-0.7593014426727411,,Dis_reg1,(based on tag),,1317,"Pref (20, bugibe.wav)", 6.30.25,630906,,,,,b,,,(based on tag)
336, 6.30.25,DisFirst_reg,,-0.9319664492078286,,Dis_reg1,(based on tag),,1073,"Pref (32, todube.wav)", 6.30.25,632165,,,,,b,,,(based on tag)
337, 6.30.25,DisFirst_reg,,-0.9140767824497258,,Dis_reg1,(based on tag),,1094,"Pref (10, gutop.wav)", 6.30.25,633575,,,,,p,,,(based on tag)
338, 6.30.25,DisFirst_reg,,-1.1037527593818985,,Dis_reg1,(based on tag),,906,"Pref (1, bidop.wav)", 6.30.25,634635,,,,,p,,,(based on tag)
339, 6.30.25,DisFirst_reg,,-1.0582010582010581,,Dis_reg1,(based on tag),,945,"Pref (7, dogip.wav)", 6.30.25,635755,,,,,p,,,(based on tag)
340, 6.30.25,DisFirst_reg,,-0.8561643835616438,,Dis_reg1,(based on tag),,1168,"Pref (26, gutobe.wav)", 6.30.25,637115,,,,,b,,,(based on tag)
341, 6.30.25,DisFirst_reg,,-0.7027406886858749,,Dis_reg1,(based on tag),,1423,"Pref (27, pidobe.wav)", 6.30.25,638694,,,,,b,,,(based on tag)
342, 6.30.25,DisFirst_reg,,-0.9689922480620154,,Dis_reg1,(based on tag),,1032,"Pref (4, bugip.wav)", 6.30.25,639874,,,,,p,,,(based on tag)
343, 6.30.25,DisFirst_reg,,-1.027749229188078,,Dis_reg1,(based on tag),,973,"Pref (15, todip.wav)", 6.30.25,641004,,,,,p,,,(based on tag)
344, 6.30.25,DisFirst_reg,,-0.9285051067780873,,Dis_reg1,(based on tag),,1077,"Pref (29, potibe.wav)", 6.30.25,642274,,,,,b,,,(based on tag)
345, 6.30.25,DisFirst_reg,,-0.9442870632672332,,Dis_reg1,(based on tag),,1059,"Pref (17, bidobe.wav)", 6.30.25,643593,,,,,b,,,(based on tag)
346, 6.30.25,DisFirst_reg,,-0.9389671361502347,,Dis_reg1,(based on tag),,1065,"Pref (25, gotebe.wav)", 6.30.25,644933,,,,,b,,,(based on tag)
347, 6.30.25,DisFirst_reg,,-0.7993605115907274,,Dis_reg1,(based on tag),,1251,"Pref (23, dogibe.wav)", 6.30.25,646423,,,,,b,,,(based on tag)
348, 6.30.25,DisFirst_reg,,-0.8818342151675485,,Dis_reg1,(based on tag),,1134,"Pref (9, gotep.wav)", 6.30.25,647753,,,,,p,,,(based on tag)
349, 6.30.25,DisFirst_reg,,-0.922509225092251,,Dis_reg1,(based on tag),,1084,"Pref (11, pidop.wav)", 6.30.25,648982,,,,,p,,,(based on tag)
350, 6.30.25,DisFirst_reg,,-0.9587727708533078,,Dis_reg1,(based on tag),,1043,"Pref (6, dikep.wav)", 6.30.25,650192,,,,,p,,,(based on tag)
351, 6.30.25,DisFirst_reg,,-1.0080645161290323,,Dis_reg1,(based on tag),,992,"Pref (2, bikup.wav)", 6.30.25,651342,,,,,p,,,(based on tag)
352, 6.30.25,DisFirst_reg,,-0.20571898786257972,,Dis_reg1,(any response),,4861,Please take a b..., 6.30.25,655211,,,,,,,,(any response)
353, 6.30.25,DisFirst_reg,,-0.08761938140716727,,Dis_reg1,(any response),,11413,Debreifing, 6.30.25,666699,,,,,,,,(any response)
