,expt_id,Group,group_id,invRT,Trial,participant_id,response_correct,response_name,response_rt,stimuli_presented,trial_template,trial_duration,PartBlocks,AllBlocks,Pattern,trial_num,PB,Final,Part,Correct
1,DF_1,DisFirst_reg,,-0.01567299855808413,,J_M,(any response),,63804,Practice_Instructions,DF_1,64169,,,,,,,,(any response)
2,DF_1,DisFirst_reg,,-0.30721966205837176,,J_M,(based on tag),,3255,"Practice (1, bumblebee.wav)",DF_1,67838,,,,,b,,,(based on tag)
3,DF_1,DisFirst_reg,,-0.6116207951070336,,J_M,(based on tag),,1635,"Practice (2, canopy.wav)",DF_1,70078,,,,,p,,,(based on tag)
4,DF_1,DisFirst_reg,,-0.8210180623973727,,J_M,(based on tag),,1218,"Practice (3, cob.wav)",DF_1,71897,,,,,b,,,(based on tag)
5,DF_1,DisFirst_reg,,-0.35958288385472853,,J_M,(based on tag),,2781,"Practice (4, copy.wav)",DF_1,75277,,,,,p,,,(based on tag)
6,DF_1,DisFirst_reg,,-1.0626992561105206,,J_M,(based on tag),,941,"Practice (5, crab.wav)",DF_1,76816,,,,,b,,,(based on tag)
7,DF_1,DisFirst_reg,,-0.547945205479452,,J_M,(based on tag),,1825,"Practice (6, crimp.wav)",DF_1,79246,,,,,p,,,(based on tag)
8,DF_1,DisFirst_reg,,-0.8802816901408451,,J_M,(based on tag),,1136,"Practice (7, flop.wav)",DF_1,80986,,,,,p,,,(based on tag)
9,DF_1,DisFirst_reg,,-0.931098696461825,,J_M,(based on tag),,1074,"Practice (8, grab.wav)",DF_1,82665,,,,,b,,,(based on tag)
10,DF_1,DisFirst_reg,,-1.0341261633919339,,J_M,(based on tag),,967,"Practice (9, grub.wav)",DF_1,84235,,,,,b,,,(based on tag)
11,DF_1,DisFirst_reg,,-1.218026796589525,,J_M,(based on tag),,821,"Practice (10, hippie.wav)",DF_1,85655,,,,,p,,,(based on tag)
12,DF_1,DisFirst_reg,,-0.6024096385542169,,J_M,(based on tag),,1660,"Practice (11, lobe.wav)",DF_1,87914,,,,,b,,,(based on tag)
13,DF_1,DisFirst_reg,,-0.8097165991902834,,J_M,(based on tag),,1235,"Practice (12, maybe.wav)",DF_1,89754,,,,,b,,,(based on tag)
14,DF_1,DisFirst_reg,,-0.8613264427217916,,J_M,(based on tag),,1161,"Practice (13, placebo.wav)",DF_1,91514,,,,,b,,,(based on tag)
15,DF_1,DisFirst_reg,,-0.9267840593141798,,J_M,(based on tag),,1079,"Practice (14, pope.wav)",DF_1,93193,,,,,p,,,(based on tag)
16,DF_1,DisFirst_reg,,-0.7874015748031497,,J_M,(based on tag),,1270,"Practice (15, ripe.wav)",DF_1,95063,,,,,p,,,(based on tag)
17,DF_1,DisFirst_reg,,-0.9017132551848512,,J_M,(based on tag),,1109,"Practice (16, scuba.wav)",DF_1,96773,,,,,b,,,(based on tag)
18,DF_1,DisFirst_reg,,-1.044932079414838,,J_M,(based on tag),,957,"Practice (17, shape.wav)",DF_1,98332,,,,,p,,,(based on tag)
19,DF_1,DisFirst_reg,,-1.2376237623762376,,J_M,(based on tag),,808,"Practice (18, toupee.wav)",DF_1,99742,,,,,p,,,(based on tag)
20,DF_1,DisFirst_reg,,-1.408450704225352,,J_M,(based on tag),,710,"Practice (19, typo.wav)",DF_1,101052,,,,,p,,,(based on tag)
21,DF_1,DisFirst_reg,,-1.050420168067227,,J_M,(based on tag),,952,"Practice (20, wallaby.wav)",DF_1,102602,,,,,b,,,(based on tag)
22,DF_1,DisFirst_reg,,-0.019904062419139747,,J_M,(any response),,50241,Instructions,DF_1,153382,,,,,,,,(any response)
23,DF_1,DisFirst_reg,,-0.07589556769884638,,J_M,(based on tag),,13176,"dispref (8, bugipe.wav)",DF_1,166950,,,,,p,,,(based on tag)
24,DF_1,DisFirst_reg,,-0.25621316935690497,,J_M,(based on tag),,3903,"dispref (15, dokub.wav)",DF_1,171009,,,,,b,,,(based on tag)
25,DF_1,DisFirst_reg,,-0.44385264092321347,,J_M,(based on tag),,2253,"dispref (27, tekub.wav)",DF_1,173419,,,,,b,,,(based on tag)
26,DF_1,DisFirst_reg,,-0.44385264092321347,,J_M,(based on tag),,2253,"dispref (13, dogib.wav)",DF_1,175828,,,,,b,,,(based on tag)
27,DF_1,DisFirst_reg,,-0.397456279809221,,J_M,(based on tag),,2516,"dispref (19, gutob.wav)",DF_1,178498,,,,,b,,,(based on tag)
28,DF_1,DisFirst_reg,,-0.5743825387708213,,J_M,(based on tag),,1741,"dispref (22, pidope.wav)",DF_1,180397,,,,,p,,,(based on tag)
29,DF_1,DisFirst_reg,,-0.5966587112171837,,J_M,(based on tag),,1676,"dispref (3, bikub.wav)",DF_1,182227,,,,,b,,,(based on tag)
30,DF_1,DisFirst_reg,,-0.5063291139240507,,J_M,(based on tag),,1975,"dispref (7, bugib.wav)",DF_1,184357,,,,,b,,,(based on tag)
31,DF_1,DisFirst_reg,,-0.6385696040868455,,J_M,(based on tag),,1566,"dispref (20, gutope.wav)",DF_1,186076,,,,,p,,,(based on tag)
32,DF_1,DisFirst_reg,,-0.6997900629811057,,J_M,(based on tag),,1429,"dispref (16, dokupe.wav)",DF_1,187666,,,,,p,,,(based on tag)
33,DF_1,DisFirst_reg,,-0.8210180623973727,,J_M,(based on tag),,1218,"dispref (9, degob.wav)",DF_1,189046,,,,,b,,,(based on tag)
34,DF_1,DisFirst_reg,,-0.7733952049497294,,J_M,(based on tag),,1293,"dispref (17, goteb.wav)",DF_1,190496,,,,,b,,,(based on tag)
35,DF_1,DisFirst_reg,,-0.7283321194464676,,J_M,(based on tag),,1373,"dispref (2, bidope.wav)",DF_1,192025,,,,,p,,,(based on tag)
36,DF_1,DisFirst_reg,,-0.727802037845706,,J_M,(based on tag),,1374,"dispref (4, bikupe.wav)",DF_1,193555,,,,,p,,,(based on tag)
37,DF_1,DisFirst_reg,,-0.5941770647653001,,J_M,(based on tag),,1683,"dispref (23, pigeb.wav)",DF_1,195395,,,,,b,,,(based on tag)
38,DF_1,DisFirst_reg,,-0.5099439061703213,,J_M,(based on tag),,1961,"dispref (25, potib.wav)",DF_1,197535,,,,,b,,,(based on tag)
39,DF_1,DisFirst_reg,,-0.5055611729019212,,J_M,(based on tag),,1978,"dispref (12, dikepe.wav)",DF_1,199714,,,,,p,,,(based on tag)
40,DF_1,DisFirst_reg,,-0.6261740763932373,,J_M,(based on tag),,1597,"dispref (30, todipe.wav)",DF_1,201464,,,,,p,,,(based on tag)
41,DF_1,DisFirst_reg,,-0.7122507122507122,,J_M,(based on tag),,1404,"dispref (29, todib.wav)",DF_1,203023,,,,,b,,,(based on tag)
42,DF_1,DisFirst_reg,,-0.7189072609633357,,J_M,(based on tag),,1391,"dispref (24, pigepe.wav)",DF_1,204583,,,,,p,,,(based on tag)
43,DF_1,DisFirst_reg,,-0.6868131868131868,,J_M,(based on tag),,1456,"dispref (26, potipe.wav)",DF_1,206193,,,,,p,,,(based on tag)
44,DF_1,DisFirst_reg,,-0.4357298474945534,,J_M,(based on tag),,2295,"dispref (6, bogepe.wav)",DF_1,208642,,,,,p,,,(based on tag)
45,DF_1,DisFirst_reg,,-0.4142502071251036,,J_M,(based on tag),,2414,"dispref (11, dikeb.wav)",DF_1,211212,,,,,b,,,(based on tag)
46,DF_1,DisFirst_reg,,-0.3397893306150187,,J_M,(based on tag),,2943,"dispref (1, bidob.wav)",DF_1,214352,,,,,b,,,(based on tag)
47,DF_1,DisFirst_reg,,-0.8210180623973727,,J_M,(based on tag),,1218,"dispref (32, todupe.wav)",DF_1,215751,,,,,p,,,(based on tag)
48,DF_1,DisFirst_reg,,-0.6246096189881324,,J_M,(based on tag),,1601,"dispref (5, bogeb.wav)",DF_1,217521,,,,,b,,,(based on tag)
49,DF_1,DisFirst_reg,,-0.382262996941896,,J_M,(based on tag),,2616,"dispref (14, dogipe.wav)",DF_1,220290,,,,,p,,,(based on tag)
50,DF_1,DisFirst_reg,,-0.5411255411255411,,J_M,(based on tag),,1848,"dispref (10, degope.wav)",DF_1,222301,,,,,p,,,(based on tag)
51,DF_1,DisFirst_reg,,-0.7704160246533128,,J_M,(based on tag),,1298,"dispref (31, todub.wav)",DF_1,223760,,,,,b,,,(based on tag)
52,DF_1,DisFirst_reg,,-0.48053820278712156,,J_M,(based on tag),,2081,"dispref (21, pidob.wav)",DF_1,225990,,,,,b,,,(based on tag)
53,DF_1,DisFirst_reg,,-0.7955449482895783,,J_M,(based on tag),,1257,"dispref (28, tekupe.wav)",DF_1,227449,,,,,p,,,(based on tag)
54,DF_1,DisFirst_reg,,-0.7052186177715092,,J_M,(based on tag),,1418,"dispref (18, gotepe.wav)",DF_1,229039,,,,,p,,,(based on tag)
55,DF_1,DisFirst_reg,,-0.3137747097583935,,J_M,(any response),,3187,Please take a b...,DF_1,230808,,,,,,,,(any response)
56,DF_1,DisFirst_reg,,-0.4972650422675286,,J_M,(based on tag),,2011,"dispref (11, dikeb.wav)",DF_1,233098,,,,,b,,,(based on tag)
57,DF_1,DisFirst_reg,,-0.5485463521667581,,J_M,(based on tag),,1823,"dispref (21, pidob.wav)",DF_1,235069,,,,,b,,,(based on tag)
58,DF_1,DisFirst_reg,,-0.4734848484848485,,J_M,(based on tag),,2112,"dispref (31, todub.wav)",DF_1,237357,,,,,b,,,(based on tag)
59,DF_1,DisFirst_reg,,-0.8710801393728222,,J_M,(based on tag),,1148,"dispref (32, todupe.wav)",DF_1,238647,,,,,p,,,(based on tag)
60,DF_1,DisFirst_reg,,-0.9372071227741331,,J_M,(based on tag),,1067,"dispref (28, tekupe.wav)",DF_1,239947,,,,,p,,,(based on tag)
61,DF_1,DisFirst_reg,,-0.9302325581395349,,J_M,(based on tag),,1075,"dispref (9, degob.wav)",DF_1,241347,,,,,b,,,(based on tag)
62,DF_1,DisFirst_reg,,-0.8688097306689835,,J_M,(based on tag),,1151,"dispref (19, gutob.wav)",DF_1,242697,,,,,b,,,(based on tag)
63,DF_1,DisFirst_reg,,-0.7440476190476191,,J_M,(based on tag),,1344,"dispref (14, dogipe.wav)",DF_1,244196,,,,,p,,,(based on tag)
64,DF_1,DisFirst_reg,,-0.831946755407654,,J_M,(based on tag),,1202,"dispref (27, tekub.wav)",DF_1,245546,,,,,b,,,(based on tag)
65,DF_1,DisFirst_reg,,-0.8382229673093042,,J_M,(based on tag),,1193,"dispref (25, potib.wav)",DF_1,246896,,,,,b,,,(based on tag)
66,DF_1,DisFirst_reg,,-0.4180602006688963,,J_M,(based on tag),,2392,"dispref (4, bikupe.wav)",DF_1,249446,,,,,p,,,(based on tag)
67,DF_1,DisFirst_reg,,-0.7898894154818326,,J_M,(based on tag),,1266,"dispref (7, bugib.wav)",DF_1,250905,,,,,b,,,(based on tag)
68,DF_1,DisFirst_reg,,-0.8795074758135444,,J_M,(based on tag),,1137,"dispref (2, bidope.wav)",DF_1,252215,,,,,p,,,(based on tag)
69,DF_1,DisFirst_reg,,-0.9199632014719411,,J_M,(based on tag),,1087,"dispref (8, bugipe.wav)",DF_1,253534,,,,,p,,,(based on tag)
70,DF_1,DisFirst_reg,,-0.8077544426494345,,J_M,(based on tag),,1238,"dispref (12, dikepe.wav)",DF_1,255104,,,,,p,,,(based on tag)
71,DF_1,DisFirst_reg,,-0.9523809523809523,,J_M,(based on tag),,1050,"dispref (29, todib.wav)",DF_1,256304,,,,,b,,,(based on tag)
72,DF_1,DisFirst_reg,,-0.8361204013377926,,J_M,(based on tag),,1196,"dispref (23, pigeb.wav)",DF_1,257654,,,,,b,,,(based on tag)
73,DF_1,DisFirst_reg,,-0.7267441860465116,,J_M,(based on tag),,1376,"dispref (26, potipe.wav)",DF_1,259183,,,,,p,,,(based on tag)
74,DF_1,DisFirst_reg,,-0.7194244604316546,,J_M,(based on tag),,1390,"dispref (24, pigepe.wav)",DF_1,260733,,,,,p,,,(based on tag)
75,DF_1,DisFirst_reg,,-0.693000693000693,,J_M,(based on tag),,1443,"dispref (15, dokub.wav)",DF_1,262323,,,,,b,,,(based on tag)
76,DF_1,DisFirst_reg,,-0.4780114722753346,,J_M,(based on tag),,2092,"dispref (10, degope.wav)",DF_1,264562,,,,,p,,,(based on tag)
77,DF_1,DisFirst_reg,,-0.7662835249042146,,J_M,(based on tag),,1305,"dispref (16, dokupe.wav)",DF_1,266012,,,,,p,,,(based on tag)
78,DF_1,DisFirst_reg,,-0.5899705014749262,,J_M,(based on tag),,1695,"dispref (20, gutope.wav)",DF_1,267852,,,,,p,,,(based on tag)
79,DF_1,DisFirst_reg,,-0.8726003490401396,,J_M,(based on tag),,1146,"dispref (5, bogeb.wav)",DF_1,269141,,,,,b,,,(based on tag)
80,DF_1,DisFirst_reg,,-0.514668039114771,,J_M,(based on tag),,1943,"dispref (3, bikub.wav)",DF_1,271231,,,,,b,,,(based on tag)
81,DF_1,DisFirst_reg,,-0.7776049766718507,,J_M,(based on tag),,1286,"dispref (30, todipe.wav)",DF_1,272661,,,,,p,,,(based on tag)
82,DF_1,DisFirst_reg,,-0.7293946024799417,,J_M,(based on tag),,1371,"dispref (22, pidope.wav)",DF_1,274231,,,,,p,,,(based on tag)
83,DF_1,DisFirst_reg,,-0.8771929824561403,,J_M,(based on tag),,1140,"dispref (13, dogib.wav)",DF_1,275520,,,,,b,,,(based on tag)
84,DF_1,DisFirst_reg,,-0.8090614886731392,,J_M,(based on tag),,1236,"dispref (1, bidob.wav)",DF_1,276920,,,,,b,,,(based on tag)
85,DF_1,DisFirst_reg,,-0.8688097306689835,,J_M,(based on tag),,1151,"dispref (17, goteb.wav)",DF_1,278220,,,,,b,,,(based on tag)
86,DF_1,DisFirst_reg,,-0.6257822277847309,,J_M,(based on tag),,1598,"dispref (6, bogepe.wav)",DF_1,279970,,,,,p,,,(based on tag)
87,DF_1,DisFirst_reg,,-0.700770847932726,,J_M,(based on tag),,1427,"dispref (18, gotepe.wav)",DF_1,281599,,,,,p,,,(based on tag)
88,DF_1,DisFirst_reg,,-0.3835826620636747,,J_M,(any response),,2607,Please take a b...,DF_1,282779,,,,,,,,(any response)
89,DF_1,DisFirst_reg,,-0.4004805766920304,,J_M,(based on tag),,2497,"dispref (12, dikepe.wav)",DF_1,285498,,,,,p,,,(based on tag)
90,DF_1,DisFirst_reg,,-0.9319664492078286,,J_M,(based on tag),,1073,"dispref (24, pigepe.wav)",DF_1,286768,,,,,p,,,(based on tag)
91,DF_1,DisFirst_reg,,-0.7874015748031497,,J_M,(based on tag),,1270,"dispref (20, gutope.wav)",DF_1,288358,,,,,p,,,(based on tag)
92,DF_1,DisFirst_reg,,-0.5194805194805194,,J_M,(based on tag),,1925,"dispref (10, degope.wav)",DF_1,290478,,,,,p,,,(based on tag)
93,DF_1,DisFirst_reg,,-0.7199424046076314,,J_M,(based on tag),,1389,"dispref (30, todipe.wav)",DF_1,292057,,,,,p,,,(based on tag)
94,DF_1,DisFirst_reg,,-1.0245901639344261,,J_M,(based on tag),,976,"dispref (7, bugib.wav)",DF_1,293187,,,,,b,,,(based on tag)
95,DF_1,DisFirst_reg,,-0.8163265306122449,,J_M,(based on tag),,1225,"dispref (25, potib.wav)",DF_1,294577,,,,,b,,,(based on tag)
96,DF_1,DisFirst_reg,,-0.7861635220125787,,J_M,(based on tag),,1272,"dispref (8, bugipe.wav)",DF_1,296056,,,,,p,,,(based on tag)
97,DF_1,DisFirst_reg,,-0.8525149190110827,,J_M,(based on tag),,1173,"dispref (1, bidob.wav)",DF_1,297387,,,,,b,,,(based on tag)
98,DF_1,DisFirst_reg,,-0.819672131147541,,J_M,(based on tag),,1220,"dispref (6, bogepe.wav)",DF_1,298756,,,,,p,,,(based on tag)
99,DF_1,DisFirst_reg,,-0.6978367062107467,,J_M,(based on tag),,1433,"dispref (3, bikub.wav)",DF_1,300346,,,,,b,,,(based on tag)
100,DF_1,DisFirst_reg,,-0.7898894154818326,,J_M,(based on tag),,1266,"dispref (21, pidob.wav)",DF_1,301766,,,,,b,,,(based on tag)
101,DF_1,DisFirst_reg,,-0.7112375533428165,,J_M,(based on tag),,1406,"dispref (31, todub.wav)",DF_1,303335,,,,,b,,,(based on tag)
102,DF_1,DisFirst_reg,,-0.526592943654555,,J_M,(based on tag),,1899,"dispref (5, bogeb.wav)",DF_1,305385,,,,,b,,,(based on tag)
103,DF_1,DisFirst_reg,,-0.7077140835102619,,J_M,(based on tag),,1413,"dispref (9, degob.wav)",DF_1,306955,,,,,b,,,(based on tag)
104,DF_1,DisFirst_reg,,-0.9149130832570905,,J_M,(based on tag),,1093,"dispref (22, pidope.wav)",DF_1,308214,,,,,p,,,(based on tag)
105,DF_1,DisFirst_reg,,-0.6887052341597796,,J_M,(based on tag),,1452,"dispref (16, dokupe.wav)",DF_1,310004,,,,,p,,,(based on tag)
106,DF_1,DisFirst_reg,,-0.6468305304010349,,J_M,(based on tag),,1546,"dispref (28, tekupe.wav)",DF_1,311704,,,,,p,,,(based on tag)
107,DF_1,DisFirst_reg,,-0.38955979742890534,,J_M,(based on tag),,2567,"dispref (13, dogib.wav)",DF_1,314423,,,,,b,,,(based on tag)
108,DF_1,DisFirst_reg,,-0.6157635467980296,,J_M,(based on tag),,1624,"dispref (4, bikupe.wav)",DF_1,316203,,,,,p,,,(based on tag)
109,DF_1,DisFirst_reg,,-0.6273525721455459,,J_M,(based on tag),,1594,"dispref (18, gotepe.wav)",DF_1,317943,,,,,p,,,(based on tag)
110,DF_1,DisFirst_reg,,-0.7027406886858749,,J_M,(based on tag),,1423,"dispref (2, bidope.wav)",DF_1,319512,,,,,p,,,(based on tag)
111,DF_1,DisFirst_reg,,-0.9433962264150944,,J_M,(based on tag),,1060,"dispref (19, gutob.wav)",DF_1,320722,,,,,b,,,(based on tag)
112,DF_1,DisFirst_reg,,-0.702247191011236,,J_M,(based on tag),,1424,"dispref (26, potipe.wav)",DF_1,322292,,,,,p,,,(based on tag)
113,DF_1,DisFirst_reg,,-0.7686395080707148,,J_M,(based on tag),,1301,"dispref (11, dikeb.wav)",DF_1,323742,,,,,b,,,(based on tag)
114,DF_1,DisFirst_reg,,-0.8695652173913043,,J_M,(based on tag),,1150,"dispref (29, todib.wav)",DF_1,325041,,,,,b,,,(based on tag)
115,DF_1,DisFirst_reg,,-0.8312551953449709,,J_M,(based on tag),,1203,"dispref (15, dokub.wav)",DF_1,326401,,,,,b,,,(based on tag)
116,DF_1,DisFirst_reg,,-0.4982561036372696,,J_M,(based on tag),,2007,"dispref (32, todupe.wav)",DF_1,328601,,,,,p,,,(based on tag)
117,DF_1,DisFirst_reg,,-0.4083299305839118,,J_M,(based on tag),,2449,"dispref (23, pigeb.wav)",DF_1,331210,,,,,b,,,(based on tag)
118,DF_1,DisFirst_reg,,-0.9124087591240876,,J_M,(based on tag),,1096,"dispref (17, goteb.wav)",DF_1,332500,,,,,b,,,(based on tag)
119,DF_1,DisFirst_reg,,-0.8779631255487269,,J_M,(based on tag),,1139,"dispref (14, dogipe.wav)",DF_1,333850,,,,,p,,,(based on tag)
120,DF_1,DisFirst_reg,,-0.6397952655150352,,J_M,(based on tag),,1563,"dispref (27, tekub.wav)",DF_1,335659,,,,,b,,,(based on tag)
121,DF_1,DisFirst_reg,,-0.3566333808844508,,J_M,(any response),,2804,Please take a b...,DF_1,336900,,,,,,,,(any response)
122,DF_1,DisFirst_reg,,-0.5341880341880342,,J_M,(based on tag),,1872,"dispref (19, gutob.wav)",DF_1,339039,,,,,b,,,(based on tag)
123,DF_1,DisFirst_reg,,-0.8368200836820083,,J_M,(based on tag),,1195,"dispref (24, pigepe.wav)",DF_1,340398,,,,,p,,,(based on tag)
124,DF_1,DisFirst_reg,,-0.6045949214026602,,J_M,(based on tag),,1654,"dispref (14, dogipe.wav)",DF_1,342248,,,,,p,,,(based on tag)
125,DF_1,DisFirst_reg,,-0.7961783439490446,,J_M,(based on tag),,1256,"dispref (25, potib.wav)",DF_1,343678,,,,,b,,,(based on tag)
126,DF_1,DisFirst_reg,,-0.5973715651135006,,J_M,(based on tag),,1674,"dispref (8, bugipe.wav)",DF_1,345537,,,,,p,,,(based on tag)
127,DF_1,DisFirst_reg,,-0.4314063848144953,,J_M,(based on tag),,2318,"dispref (28, tekupe.wav)",DF_1,348017,,,,,p,,,(based on tag)
128,DF_1,DisFirst_reg,,-0.5473453749315819,,J_M,(based on tag),,1827,"dispref (23, pigeb.wav)",DF_1,350057,,,,,b,,,(based on tag)
129,DF_1,DisFirst_reg,,-0.2892681515765114,,J_M,(based on tag),,3457,"dispref (4, bikupe.wav)",DF_1,353716,,,,,p,,,(based on tag)
130,DF_1,DisFirst_reg,,-0.5747126436781609,,J_M,(based on tag),,1740,"dispref (1, bidob.wav)",DF_1,355666,,,,,b,,,(based on tag)
131,DF_1,DisFirst_reg,,-0.601684717208183,,J_M,(based on tag),,1662,"dispref (31, todub.wav)",DF_1,357476,,,,,b,,,(based on tag)
132,DF_1,DisFirst_reg,,-0.7067137809187279,,J_M,(based on tag),,1415,"dispref (21, pidob.wav)",DF_1,359056,,,,,b,,,(based on tag)
133,DF_1,DisFirst_reg,,-0.5530973451327433,,J_M,(based on tag),,1808,"dispref (3, bikub.wav)",DF_1,361025,,,,,b,,,(based on tag)
134,DF_1,DisFirst_reg,,-0.5977286312014346,,J_M,(based on tag),,1673,"dispref (27, tekub.wav)",DF_1,362884,,,,,b,,,(based on tag)
135,DF_1,DisFirst_reg,,-0.6954102920723226,,J_M,(based on tag),,1438,"dispref (30, todipe.wav)",DF_1,364504,,,,,p,,,(based on tag)
136,DF_1,DisFirst_reg,,-0.5027652086475616,,J_M,(based on tag),,1989,"dispref (32, todupe.wav)",DF_1,366644,,,,,p,,,(based on tag)
137,DF_1,DisFirst_reg,,-1.037344398340249,,J_M,(based on tag),,964,"dispref (9, degob.wav)",DF_1,367784,,,,,b,,,(based on tag)
138,DF_1,DisFirst_reg,,-0.8849557522123894,,J_M,(based on tag),,1130,"dispref (20, gutope.wav)",DF_1,369083,,,,,p,,,(based on tag)
139,DF_1,DisFirst_reg,,-0.7905138339920948,,J_M,(based on tag),,1265,"dispref (16, dokupe.wav)",DF_1,370633,,,,,p,,,(based on tag)
140,DF_1,DisFirst_reg,,-1.016260162601626,,J_M,(based on tag),,984,"dispref (13, dogib.wav)",DF_1,371783,,,,,b,,,(based on tag)
141,DF_1,DisFirst_reg,,-0.8203445447087777,,J_M,(based on tag),,1219,"dispref (17, goteb.wav)",DF_1,373152,,,,,b,,,(based on tag)
142,DF_1,DisFirst_reg,,-0.44228217602830605,,J_M,(based on tag),,2261,"dispref (11, dikeb.wav)",DF_1,375562,,,,,b,,,(based on tag)
143,DF_1,DisFirst_reg,,-0.3570153516601214,,J_M,(based on tag),,2801,"dispref (6, bogepe.wav)",DF_1,378511,,,,,p,,,(based on tag)
144,DF_1,DisFirst_reg,,-0.7457121551081283,,J_M,(based on tag),,1341,"dispref (22, pidope.wav)",DF_1,380001,,,,,p,,,(based on tag)
145,DF_1,DisFirst_reg,,-1.0869565217391304,,J_M,(based on tag),,920,"dispref (15, dokub.wav)",DF_1,381071,,,,,b,,,(based on tag)
146,DF_1,DisFirst_reg,,-0.8368200836820083,,J_M,(based on tag),,1195,"dispref (18, gotepe.wav)",DF_1,382413,,,,,p,,,(based on tag)
147,DF_1,DisFirst_reg,,-0.8880994671403197,,J_M,(based on tag),,1126,"dispref (10, degope.wav)",DF_1,383690,,,,,p,,,(based on tag)
148,DF_1,DisFirst_reg,,-0.9025270758122743,,J_M,(based on tag),,1108,"dispref (26, potipe.wav)",DF_1,385090,,,,,p,,,(based on tag)
149,DF_1,DisFirst_reg,,-0.8650519031141869,,J_M,(based on tag),,1156,"dispref (12, dikepe.wav)",DF_1,386560,,,,,p,,,(based on tag)
150,DF_1,DisFirst_reg,,-0.9354536950420954,,J_M,(based on tag),,1069,"dispref (7, bugib.wav)",DF_1,387860,,,,,b,,,(based on tag)
151,DF_1,DisFirst_reg,,-0.6480881399870383,,J_M,(based on tag),,1543,"dispref (29, todib.wav)",DF_1,389550,,,,,b,,,(based on tag)
152,DF_1,DisFirst_reg,,-0.6788866259334692,,J_M,(based on tag),,1473,"dispref (5, bogeb.wav)",DF_1,391169,,,,,b,,,(based on tag)
153,DF_1,DisFirst_reg,,-0.7107320540156361,,J_M,(based on tag),,1407,"dispref (2, bidope.wav)",DF_1,392739,,,,,p,,,(based on tag)
154,DF_1,DisFirst_reg,,-0.35880875493362036,,J_M,(any response),,2787,Please take a b...,DF_1,394119,,,,,,,,(any response)
155,DF_1,DisFirst_reg,,-0.6724949562878278,,J_M,(based on tag),,1487,"dispref (14, dogipe.wav)",DF_1,395838,,,,,p,,,(based on tag)
156,DF_1,DisFirst_reg,,-0.856898029134533,,J_M,(based on tag),,1167,"dispref (24, pigepe.wav)",DF_1,397158,,,,,p,,,(based on tag)
157,DF_1,DisFirst_reg,,-0.9478672985781991,,J_M,(based on tag),,1055,"dispref (25, potib.wav)",DF_1,398438,,,,,b,,,(based on tag)
158,DF_1,DisFirst_reg,,-0.6925207756232687,,J_M,(based on tag),,1444,"dispref (8, bugipe.wav)",DF_1,400028,,,,,p,,,(based on tag)
159,DF_1,DisFirst_reg,,-0.7824726134585289,,J_M,(based on tag),,1278,"dispref (12, dikepe.wav)",DF_1,401457,,,,,p,,,(based on tag)
160,DF_1,DisFirst_reg,,-0.8156606851549756,,J_M,(based on tag),,1226,"dispref (4, bikupe.wav)",DF_1,402837,,,,,p,,,(based on tag)
161,DF_1,DisFirst_reg,,-0.8110300081103001,,J_M,(based on tag),,1233,"dispref (26, potipe.wav)",DF_1,404237,,,,,p,,,(based on tag)
162,DF_1,DisFirst_reg,,-0.8833922261484098,,J_M,(based on tag),,1132,"dispref (7, bugib.wav)",DF_1,405547,,,,,b,,,(based on tag)
163,DF_1,DisFirst_reg,,-0.7390983000739099,,J_M,(based on tag),,1353,"dispref (29, todib.wav)",DF_1,407066,,,,,b,,,(based on tag)
164,DF_1,DisFirst_reg,,-0.33557046979865773,,J_M,(based on tag),,2980,"dispref (5, bogeb.wav)",DF_1,410196,,,,,b,,,(based on tag)
165,DF_1,DisFirst_reg,,-0.4568296025582458,,J_M,(based on tag),,2189,"dispref (3, bikub.wav)",DF_1,412555,,,,,b,,,(based on tag)
166,DF_1,DisFirst_reg,,-0.38955979742890534,,J_M,(based on tag),,2567,"dispref (13, dogib.wav)",DF_1,415275,,,,,b,,,(based on tag)
167,DF_1,DisFirst_reg,,-0.17370158068438424,,J_M,(based on tag),,5757,"dispref (21, pidob.wav)",DF_1,421224,,,,,b,,,(based on tag)
168,DF_1,DisFirst_reg,,-0.8748906386701663,,J_M,(based on tag),,1143,"dispref (31, todub.wav)",DF_1,422593,,,,,b,,,(based on tag)
169,DF_1,DisFirst_reg,,-0.8695652173913043,,J_M,(based on tag),,1150,"dispref (30, todipe.wav)",DF_1,423904,,,,,p,,,(based on tag)
170,DF_1,DisFirst_reg,,-0.9920634920634921,,J_M,(based on tag),,1008,"dispref (18, gotepe.wav)",DF_1,425184,,,,,p,,,(based on tag)
171,DF_1,DisFirst_reg,,-0.8382229673093042,,J_M,(based on tag),,1193,"dispref (16, dokupe.wav)",DF_1,426713,,,,,p,,,(based on tag)
172,DF_1,DisFirst_reg,,-0.7880220646178093,,J_M,(based on tag),,1269,"dispref (6, bogepe.wav)",DF_1,428213,,,,,p,,,(based on tag)
173,DF_1,DisFirst_reg,,-0.6978367062107467,,J_M,(based on tag),,1433,"dispref (10, degope.wav)",DF_1,429802,,,,,p,,,(based on tag)
174,DF_1,DisFirst_reg,,-0.7062146892655368,,J_M,(based on tag),,1416,"dispref (15, dokub.wav)",DF_1,431372,,,,,b,,,(based on tag)
175,DF_1,DisFirst_reg,,-0.5359056806002144,,J_M,(based on tag),,1866,"dispref (11, dikeb.wav)",DF_1,433392,,,,,b,,,(based on tag)
176,DF_1,DisFirst_reg,,-0.628140703517588,,J_M,(based on tag),,1592,"dispref (27, tekub.wav)",DF_1,435181,,,,,b,,,(based on tag)
177,DF_1,DisFirst_reg,,-0.38138825324180015,,J_M,(based on tag),,2622,"dispref (22, pidope.wav)",DF_1,437951,,,,,p,,,(based on tag)
178,DF_1,DisFirst_reg,,-0.39093041438623927,,J_M,(based on tag),,2558,"dispref (19, gutob.wav)",DF_1,440670,,,,,b,,,(based on tag)
179,DF_1,DisFirst_reg,,-1.0893246187363834,,J_M,(based on tag),,918,"dispref (9, degob.wav)",DF_1,441770,,,,,b,,,(based on tag)
180,DF_1,DisFirst_reg,,-0.9442870632672332,,J_M,(based on tag),,1059,"dispref (32, todupe.wav)",DF_1,443010,,,,,p,,,(based on tag)
181,DF_1,DisFirst_reg,,-0.5592841163310962,,J_M,(based on tag),,1788,"dispref (23, pigeb.wav)",DF_1,445119,,,,,b,,,(based on tag)
182,DF_1,DisFirst_reg,,-0.5643340857787811,,J_M,(based on tag),,1772,"dispref (20, gutope.wav)",DF_1,447039,,,,,p,,,(based on tag)
183,DF_1,DisFirst_reg,,-0.5,,J_M,(based on tag),,2000,"dispref (2, bidope.wav)",DF_1,449189,,,,,p,,,(based on tag)
184,DF_1,DisFirst_reg,,-0.7158196134574087,,J_M,(based on tag),,1397,"dispref (28, tekupe.wav)",DF_1,450738,,,,,p,,,(based on tag)
185,DF_1,DisFirst_reg,,-0.6489292667099286,,J_M,(based on tag),,1541,"dispref (1, bidob.wav)",DF_1,452478,,,,,b,,,(based on tag)
186,DF_1,DisFirst_reg,,-0.5091649694501018,,J_M,(based on tag),,1964,"dispref (17, goteb.wav)",DF_1,454638,,,,,b,,,(based on tag)
187,DF_1,DisFirst_reg,,-0.3286230693394676,,J_M,(any response),,3043,Please take a b...,DF_1,455717,,,,,,,,(any response)
188,DF_1,DisFirst_reg,,-0.28826751225136926,,J_M,(based on tag),,3469,"Pref (7, dogip.wav)",DF_1,459457,,,,,p,,,(based on tag)
189,DF_1,DisFirst_reg,,-0.4562043795620438,,J_M,(based on tag),,2192,"Pref (1, bidop.wav)",DF_1,461848,,,,,p,,,(based on tag)
190,DF_1,DisFirst_reg,,-0.2420135527589545,,J_M,(based on tag),,4132,"Pref (25, gotebe.wav)",DF_1,466187,,,,,b,,,(based on tag)
191,DF_1,DisFirst_reg,,-0.19293845263360987,,J_M,(based on tag),,5183,"Pref (3, bogep.wav)",DF_1,471575,,,,,p,,,(based on tag)
192,DF_1,DisFirst_reg,,-0.4001600640256102,,J_M,(based on tag),,2499,"Pref (6, dikep.wav)",DF_1,474264,,,,,p,,,(based on tag)
193,DF_1,DisFirst_reg,,-0.28851702250432776,,J_M,(based on tag),,3466,"Pref (23, dogibe.wav)",DF_1,477884,,,,,b,,,(based on tag)
194,DF_1,DisFirst_reg,,-0.45248868778280543,,J_M,(based on tag),,2210,"Pref (16, todup.wav)",DF_1,480293,,,,,p,,,(based on tag)
195,DF_1,DisFirst_reg,,-0.6285355122564424,,J_M,(based on tag),,1591,"Pref (29, potibe.wav)",DF_1,482083,,,,,b,,,(based on tag)
196,DF_1,DisFirst_reg,,-0.47393364928909953,,J_M,(based on tag),,2110,"Pref (13, potip.wav)",DF_1,484342,,,,,p,,,(based on tag)
197,DF_1,DisFirst_reg,,-0.4095004095004095,,J_M,(based on tag),,2442,"Pref (24, dokube.wav)",DF_1,486952,,,,,b,,,(based on tag)
198,DF_1,DisFirst_reg,,-0.24295432458697766,,J_M,(based on tag),,4116,"Pref (4, bugip.wav)",DF_1,491211,,,,,p,,,(based on tag)
199,DF_1,DisFirst_reg,,-0.4716981132075472,,J_M,(based on tag),,2120,"Pref (20, bugibe.wav)",DF_1,493481,,,,,b,,,(based on tag)
200,DF_1,DisFirst_reg,,-0.3056234718826406,,J_M,(based on tag),,3272,"Pref (30, tekube.wav)",DF_1,496910,,,,,b,,,(based on tag)
201,DF_1,DisFirst_reg,,-0.42140750105351876,,J_M,(based on tag),,2373,"Pref (14, tekup.wav)",DF_1,499489,,,,,p,,,(based on tag)
202,DF_1,DisFirst_reg,,-0.26392187912377935,,J_M,(based on tag),,3789,"Pref (11, pidop.wav)",DF_1,503429,,,,,p,,,(based on tag)
203,DF_1,DisFirst_reg,,-0.5966587112171837,,J_M,(based on tag),,1676,"Pref (21, degobe.wav)",DF_1,505298,,,,,b,,,(based on tag)
204,DF_1,DisFirst_reg,,-0.585480093676815,,J_M,(based on tag),,1708,"Pref (27, pidobe.wav)",DF_1,507179,,,,,b,,,(based on tag)
205,DF_1,DisFirst_reg,,-0.3107520198881293,,J_M,(based on tag),,3218,"Pref (9, gotep.wav)",DF_1,510547,,,,,p,,,(based on tag)
206,DF_1,DisFirst_reg,,-0.4084967320261438,,J_M,(based on tag),,2448,"Pref (5, degop.wav)",DF_1,513147,,,,,p,,,(based on tag)
207,DF_1,DisFirst_reg,,-0.2732987154960372,,J_M,(based on tag),,3659,"Pref (8, dokup.wav)",DF_1,516976,,,,,p,,,(based on tag)
208,DF_1,DisFirst_reg,,-0.41736227045075125,,J_M,(based on tag),,2396,"Pref (12, pigep.wav)",DF_1,519556,,,,,p,,,(based on tag)
209,DF_1,DisFirst_reg,,-0.47460844803037494,,J_M,(based on tag),,2107,"Pref (22, dikebe.wav)",DF_1,521865,,,,,b,,,(based on tag)
210,DF_1,DisFirst_reg,,-0.6203473945409429,,J_M,(based on tag),,1612,"Pref (26, gutobe.wav)",DF_1,523675,,,,,b,,,(based on tag)
211,DF_1,DisFirst_reg,,-0.2913752913752914,,J_M,(based on tag),,3432,"Pref (19, bogebe.wav)",DF_1,527324,,,,,b,,,(based on tag)
212,DF_1,DisFirst_reg,,-0.34782608695652173,,J_M,(based on tag),,2875,"Pref (28, pigebe.wav)",DF_1,530354,,,,,b,,,(based on tag)
213,DF_1,DisFirst_reg,,-0.5614823133071308,,J_M,(based on tag),,1781,"Pref (15, todip.wav)",DF_1,532323,,,,,p,,,(based on tag)
214,DF_1,DisFirst_reg,,-0.4670714619336759,,J_M,(based on tag),,2141,"Pref (10, gutop.wav)",DF_1,534614,,,,,p,,,(based on tag)
215,DF_1,DisFirst_reg,,-0.39603960396039606,,J_M,(based on tag),,2525,"Pref (31, todibe.wav)",DF_1,537332,,,,,b,,,(based on tag)
216,DF_1,DisFirst_reg,,-0.5920663114268798,,J_M,(based on tag),,1689,"Pref (18, bikube.wav)",DF_1,539182,,,,,b,,,(based on tag)
217,DF_1,DisFirst_reg,,-0.6447453255963894,,J_M,(based on tag),,1551,"Pref (17, bidobe.wav)",DF_1,540882,,,,,b,,,(based on tag)
218,DF_1,DisFirst_reg,,-0.6653359946773121,,J_M,(based on tag),,1503,"Pref (32, todube.wav)",DF_1,542552,,,,,b,,,(based on tag)
219,DF_1,DisFirst_reg,,-0.47961630695443647,,J_M,(based on tag),,2085,"Pref (2, bikup.wav)",DF_1,544791,,,,,p,,,(based on tag)
220,DF_1,DisFirst_reg,,-0.2910360884749709,,J_M,(any response),,3436,Please take a b...,DF_1,546142,,,,,,,,(any response)
221,DF_1,DisFirst_reg,,-0.32808398950131235,,J_M,(based on tag),,3048,"Pref (14, tekup.wav)",DF_1,549420,,,,,p,,,(based on tag)
222,DF_1,DisFirst_reg,,-0.6361323155216285,,J_M,(based on tag),,1572,"Pref (28, pigebe.wav)",DF_1,551140,,,,,b,,,(based on tag)
223,DF_1,DisFirst_reg,,-0.40290088638195004,,J_M,(based on tag),,2482,"Pref (12, pigep.wav)",DF_1,553769,,,,,p,,,(based on tag)
224,DF_1,DisFirst_reg,,-0.3688675765400221,,J_M,(based on tag),,2711,"Pref (32, todube.wav)",DF_1,556639,,,,,b,,,(based on tag)
225,DF_1,DisFirst_reg,,-0.44603033006244425,,J_M,(based on tag),,2242,"Pref (6, dikep.wav)",DF_1,559069,,,,,p,,,(based on tag)
226,DF_1,DisFirst_reg,,-0.4065040650406504,,J_M,(based on tag),,2460,"Pref (7, dogip.wav)",DF_1,561728,,,,,p,,,(based on tag)
227,DF_1,DisFirst_reg,,-0.3952569169960474,,J_M,(based on tag),,2530,"Pref (22, dikebe.wav)",DF_1,564437,,,,,b,,,(based on tag)
228,DF_1,DisFirst_reg,,-0.5518763796909493,,J_M,(based on tag),,1812,"Pref (19, bogebe.wav)",DF_1,566437,,,,,b,,,(based on tag)
229,DF_1,DisFirst_reg,,-0.6038647342995169,,J_M,(based on tag),,1656,"Pref (11, pidop.wav)",DF_1,568247,,,,,p,,,(based on tag)
230,DF_1,DisFirst_reg,,-0.3286230693394676,,J_M,(based on tag),,3043,"Pref (27, pidobe.wav)",DF_1,571446,,,,,b,,,(based on tag)
231,DF_1,DisFirst_reg,,-0.46296296296296297,,J_M,(based on tag),,2160,"Pref (3, bogep.wav)",DF_1,573756,,,,,p,,,(based on tag)
232,DF_1,DisFirst_reg,,-0.5417118093174431,,J_M,(based on tag),,1846,"Pref (30, tekube.wav)",DF_1,575796,,,,,b,,,(based on tag)
233,DF_1,DisFirst_reg,,-0.7336757153338225,,J_M,(based on tag),,1363,"Pref (5, degop.wav)",DF_1,577375,,,,,p,,,(based on tag)
234,DF_1,DisFirst_reg,,-0.41841004184100417,,J_M,(based on tag),,2390,"Pref (25, gotebe.wav)",DF_1,579915,,,,,b,,,(based on tag)
235,DF_1,DisFirst_reg,,-0.5844535359438925,,J_M,(based on tag),,1711,"Pref (31, todibe.wav)",DF_1,581824,,,,,b,,,(based on tag)
236,DF_1,DisFirst_reg,,-0.4816955684007707,,J_M,(based on tag),,2076,"Pref (8, dokup.wav)",DF_1,584044,,,,,p,,,(based on tag)
237,DF_1,DisFirst_reg,,-0.29770765108663294,,J_M,(based on tag),,3359,"Pref (13, potip.wav)",DF_1,587554,,,,,p,,,(based on tag)
238,DF_1,DisFirst_reg,,-0.49382716049382713,,J_M,(based on tag),,2025,"Pref (23, dogibe.wav)",DF_1,589763,,,,,b,,,(based on tag)
239,DF_1,DisFirst_reg,,-0.5627462014631401,,J_M,(based on tag),,1777,"Pref (18, bikube.wav)",DF_1,591693,,,,,b,,,(based on tag)
240,DF_1,DisFirst_reg,,-0.38804811796662786,,J_M,(based on tag),,2577,"Pref (2, bikup.wav)",DF_1,594432,,,,,p,,,(based on tag)
241,DF_1,DisFirst_reg,,-0.49261083743842365,,J_M,(based on tag),,2030,"Pref (29, potibe.wav)",DF_1,596612,,,,,b,,,(based on tag)
242,DF_1,DisFirst_reg,,-0.44583147570218457,,J_M,(based on tag),,2243,"Pref (10, gutop.wav)",DF_1,599001,,,,,p,,,(based on tag)
243,DF_1,DisFirst_reg,,-0.5698005698005698,,J_M,(based on tag),,1755,"Pref (1, bidop.wav)",DF_1,600962,,,,,p,,,(based on tag)
244,DF_1,DisFirst_reg,,-0.5621135469364812,,J_M,(based on tag),,1779,"Pref (16, todup.wav)",DF_1,602930,,,,,p,,,(based on tag)
245,DF_1,DisFirst_reg,,-0.5488474204171241,,J_M,(based on tag),,1822,"Pref (20, bugibe.wav)",DF_1,604901,,,,,b,,,(based on tag)
246,DF_1,DisFirst_reg,,-0.36764705882352944,,J_M,(based on tag),,2720,"Pref (4, bugip.wav)",DF_1,607770,,,,,p,,,(based on tag)
247,DF_1,DisFirst_reg,,-0.7067137809187279,,J_M,(based on tag),,1415,"Pref (21, degobe.wav)",DF_1,609379,,,,,b,,,(based on tag)
248,DF_1,DisFirst_reg,,-0.6675567423230975,,J_M,(based on tag),,1498,"Pref (24, dokube.wav)",DF_1,611029,,,,,b,,,(based on tag)
249,DF_1,DisFirst_reg,,-0.6988120195667366,,J_M,(based on tag),,1431,"Pref (9, gotep.wav)",DF_1,612610,,,,,p,,,(based on tag)
250,DF_1,DisFirst_reg,,-0.8368200836820083,,J_M,(based on tag),,1195,"Pref (17, bidobe.wav)",DF_1,613978,,,,,b,,,(based on tag)
251,DF_1,DisFirst_reg,,-0.501002004008016,,J_M,(based on tag),,1996,"Pref (15, todip.wav)",DF_1,616128,,,,,p,,,(based on tag)
252,DF_1,DisFirst_reg,,-0.7993605115907274,,J_M,(based on tag),,1251,"Pref (26, gutobe.wav)",DF_1,617568,,,,,b,,,(based on tag)
253,DF_1,DisFirst_reg,,-0.3343363423604146,,J_M,(any response),,2991,Please take a b...,DF_1,619308,,,,,,,,(any response)
254,DF_1,DisFirst_reg,,-0.48828125,,J_M,(based on tag),,2048,"Pref (16, todup.wav)",DF_1,621638,,,,,p,,,(based on tag)
255,DF_1,DisFirst_reg,,-0.5192107995846313,,J_M,(based on tag),,1926,"Pref (6, dikep.wav)",DF_1,623718,,,,,p,,,(based on tag)
256,DF_1,DisFirst_reg,,-0.38022813688212925,,J_M,(based on tag),,2630,"Pref (12, pigep.wav)",DF_1,626556,,,,,p,,,(based on tag)
257,DF_1,DisFirst_reg,,-0.612369871402327,,J_M,(based on tag),,1633,"Pref (8, dokup.wav)",DF_1,628406,,,,,p,,,(based on tag)
258,DF_1,DisFirst_reg,,-0.45392646391284613,,J_M,(based on tag),,2203,"Pref (17, bidobe.wav)",DF_1,630826,,,,,b,,,(based on tag)
259,DF_1,DisFirst_reg,,-0.47573739295908657,,J_M,(based on tag),,2102,"Pref (29, potibe.wav)",DF_1,633126,,,,,b,,,(based on tag)
260,DF_1,DisFirst_reg,,-0.5668934240362812,,J_M,(based on tag),,1764,"Pref (20, bugibe.wav)",DF_1,635035,,,,,b,,,(based on tag)
261,DF_1,DisFirst_reg,,-0.4662004662004662,,J_M,(based on tag),,2145,"Pref (2, bikup.wav)",DF_1,637334,,,,,p,,,(based on tag)
262,DF_1,DisFirst_reg,,-0.4670714619336759,,J_M,(based on tag),,2141,"Pref (4, bugip.wav)",DF_1,639664,,,,,p,,,(based on tag)
263,DF_1,DisFirst_reg,,-0.339097999321804,,J_M,(based on tag),,2949,"Pref (5, degop.wav)",DF_1,642803,,,,,p,,,(based on tag)
264,DF_1,DisFirst_reg,,-0.6711409395973155,,J_M,(based on tag),,1490,"Pref (21, degobe.wav)",DF_1,644443,,,,,b,,,(based on tag)
265,DF_1,DisFirst_reg,,-0.32393909944930355,,J_M,(based on tag),,3087,"Pref (15, todip.wav)",DF_1,647703,,,,,p,,,(based on tag)
266,DF_1,DisFirst_reg,,-0.6176652254478073,,J_M,(based on tag),,1619,"Pref (9, gotep.wav)",DF_1,649512,,,,,p,,,(based on tag)
267,DF_1,DisFirst_reg,,-0.5091649694501018,,J_M,(based on tag),,1964,"Pref (32, todube.wav)",DF_1,651632,,,,,b,,,(based on tag)
268,DF_1,DisFirst_reg,,-0.5561735261401557,,J_M,(based on tag),,1798,"Pref (3, bogep.wav)",DF_1,653631,,,,,p,,,(based on tag)
269,DF_1,DisFirst_reg,,-0.48614487117160915,,J_M,(based on tag),,2057,"Pref (11, pidop.wav)",DF_1,655871,,,,,p,,,(based on tag)
270,DF_1,DisFirst_reg,,-0.509683995922528,,J_M,(based on tag),,1962,"Pref (10, gutop.wav)",DF_1,657981,,,,,p,,,(based on tag)
271,DF_1,DisFirst_reg,,-0.7027406886858749,,J_M,(based on tag),,1423,"Pref (1, bidop.wav)",DF_1,659610,,,,,p,,,(based on tag)
272,DF_1,DisFirst_reg,,-0.5449591280653951,,J_M,(based on tag),,1835,"Pref (28, pigebe.wav)",DF_1,661590,,,,,b,,,(based on tag)
273,DF_1,DisFirst_reg,,-0.48614487117160915,,J_M,(based on tag),,2057,"Pref (27, pidobe.wav)",DF_1,663829,,,,,b,,,(based on tag)
274,DF_1,DisFirst_reg,,-0.33156498673740054,,J_M,(based on tag),,3016,"Pref (13, potip.wav)",DF_1,666989,,,,,p,,,(based on tag)
275,DF_1,DisFirst_reg,,-0.513874614594039,,J_M,(based on tag),,1946,"Pref (23, dogibe.wav)",DF_1,669188,,,,,b,,,(based on tag)
276,DF_1,DisFirst_reg,,-0.5827505827505828,,J_M,(based on tag),,1716,"Pref (19, bogebe.wav)",DF_1,671098,,,,,b,,,(based on tag)
277,DF_1,DisFirst_reg,,-0.5053057099545225,,J_M,(based on tag),,1979,"Pref (7, dogip.wav)",DF_1,673248,,,,,p,,,(based on tag)
278,DF_1,DisFirst_reg,,-0.7407407407407407,,J_M,(based on tag),,1350,"Pref (30, tekube.wav)",DF_1,674808,,,,,b,,,(based on tag)
279,DF_1,DisFirst_reg,,-0.7936507936507936,,J_M,(based on tag),,1260,"Pref (26, gutobe.wav)",DF_1,676237,,,,,b,,,(based on tag)
280,DF_1,DisFirst_reg,,-0.43459365493263796,,J_M,(based on tag),,2301,"Pref (25, gotebe.wav)",DF_1,678687,,,,,b,,,(based on tag)
281,DF_1,DisFirst_reg,,-0.3207184092366902,,J_M,(based on tag),,3118,"Pref (24, dokube.wav)",DF_1,681986,,,,,b,,,(based on tag)
282,DF_1,DisFirst_reg,,-0.6802721088435374,,J_M,(based on tag),,1470,"Pref (22, dikebe.wav)",DF_1,683616,,,,,b,,,(based on tag)
283,DF_1,DisFirst_reg,,-0.6915629322268326,,J_M,(based on tag),,1446,"Pref (31, todibe.wav)",DF_1,685226,,,,,b,,,(based on tag)
284,DF_1,DisFirst_reg,,-0.819000819000819,,J_M,(based on tag),,1221,"Pref (18, bikube.wav)",DF_1,686605,,,,,b,,,(based on tag)
285,DF_1,DisFirst_reg,,-0.922509225092251,,J_M,(based on tag),,1084,"Pref (14, tekup.wav)",DF_1,687855,,,,,p,,,(based on tag)
286,DF_1,DisFirst_reg,,-0.44365572315882873,,J_M,(any response),,2254,Please take a b...,DF_1,689025,,,,,,,,(any response)
287,DF_1,DisFirst_reg,,-0.7037297677691766,,J_M,(based on tag),,1421,"Pref (18, bikube.wav)",DF_1,690674,,,,,b,,,(based on tag)
288,DF_1,DisFirst_reg,,-0.4734848484848485,,J_M,(based on tag),,2112,"Pref (6, dikep.wav)",DF_1,692935,,,,,p,,,(based on tag)
289,DF_1,DisFirst_reg,,-0.5656108597285068,,J_M,(based on tag),,1768,"Pref (9, gotep.wav)",DF_1,694874,,,,,p,,,(based on tag)
290,DF_1,DisFirst_reg,,-0.42140750105351876,,J_M,(based on tag),,2373,"Pref (26, gutobe.wav)",DF_1,697403,,,,,b,,,(based on tag)
291,DF_1,DisFirst_reg,,-0.7396449704142012,,J_M,(based on tag),,1352,"Pref (21, degobe.wav)",DF_1,698943,,,,,b,,,(based on tag)
292,DF_1,DisFirst_reg,,-0.7961783439490446,,J_M,(based on tag),,1256,"Pref (27, pidobe.wav)",DF_1,700353,,,,,b,,,(based on tag)
293,DF_1,DisFirst_reg,,-0.8375209380234506,,J_M,(based on tag),,1194,"Pref (23, dogibe.wav)",DF_1,701702,,,,,b,,,(based on tag)
294,DF_1,DisFirst_reg,,-0.916590284142988,,J_M,(based on tag),,1091,"Pref (10, gutop.wav)",DF_1,703022,,,,,p,,,(based on tag)
295,DF_1,DisFirst_reg,,-0.9900990099009901,,J_M,(based on tag),,1010,"Pref (16, todup.wav)",DF_1,704212,,,,,p,,,(based on tag)
296,DF_1,DisFirst_reg,,-0.8733624454148472,,J_M,(based on tag),,1145,"Pref (28, pigebe.wav)",DF_1,705512,,,,,b,,,(based on tag)
297,DF_1,DisFirst_reg,,-0.8136696501220505,,J_M,(based on tag),,1229,"Pref (30, tekube.wav)",DF_1,706902,,,,,b,,,(based on tag)
298,DF_1,DisFirst_reg,,-0.7535795026375283,,J_M,(based on tag),,1327,"Pref (11, pidop.wav)",DF_1,708401,,,,,p,,,(based on tag)
299,DF_1,DisFirst_reg,,-0.794912559618442,,J_M,(based on tag),,1258,"Pref (19, bogebe.wav)",DF_1,709811,,,,,b,,,(based on tag)
300,DF_1,DisFirst_reg,,-0.8244023083264633,,J_M,(based on tag),,1213,"Pref (14, tekup.wav)",DF_1,711181,,,,,p,,,(based on tag)
301,DF_1,DisFirst_reg,,-0.36791758646063283,,J_M,(based on tag),,2718,"Pref (12, pigep.wav)",DF_1,714050,,,,,p,,,(based on tag)
302,DF_1,DisFirst_reg,,-0.7662835249042146,,J_M,(based on tag),,1305,"Pref (22, dikebe.wav)",DF_1,715550,,,,,b,,,(based on tag)
303,DF_1,DisFirst_reg,,-0.7524454477050414,,J_M,(based on tag),,1329,"Pref (31, todibe.wav)",DF_1,717050,,,,,b,,,(based on tag)
304,DF_1,DisFirst_reg,,-0.800640512409928,,J_M,(based on tag),,1249,"Pref (5, degop.wav)",DF_1,718450,,,,,p,,,(based on tag)
305,DF_1,DisFirst_reg,,-0.7251631617113851,,J_M,(based on tag),,1379,"Pref (8, dokup.wav)",DF_1,719980,,,,,p,,,(based on tag)
306,DF_1,DisFirst_reg,,-0.7168458781362007,,J_M,(based on tag),,1395,"Pref (1, bidop.wav)",DF_1,721549,,,,,p,,,(based on tag)
307,DF_1,DisFirst_reg,,-0.4928536224741252,,J_M,(based on tag),,2029,"Pref (32, todube.wav)",DF_1,723729,,,,,b,,,(based on tag)
308,DF_1,DisFirst_reg,,-0.46511627906976744,,J_M,(based on tag),,2150,"Pref (13, potip.wav)",DF_1,726039,,,,,p,,,(based on tag)
309,DF_1,DisFirst_reg,,-0.6414368184733804,,J_M,(based on tag),,1559,"Pref (3, bogep.wav)",DF_1,727798,,,,,p,,,(based on tag)
310,DF_1,DisFirst_reg,,-0.6618133686300464,,J_M,(based on tag),,1511,"Pref (15, todip.wav)",DF_1,729527,,,,,p,,,(based on tag)
311,DF_1,DisFirst_reg,,-0.6082725060827251,,J_M,(based on tag),,1644,"Pref (24, dokube.wav)",DF_1,731338,,,,,b,,,(based on tag)
312,DF_1,DisFirst_reg,,-0.7593014426727411,,J_M,(based on tag),,1317,"Pref (17, bidobe.wav)",DF_1,732817,,,,,b,,,(based on tag)
313,DF_1,DisFirst_reg,,-0.6684491978609626,,J_M,(based on tag),,1496,"Pref (29, potibe.wav)",DF_1,734466,,,,,b,,,(based on tag)
314,DF_1,DisFirst_reg,,-0.7304601899196493,,J_M,(based on tag),,1369,"Pref (20, bugibe.wav)",DF_1,736006,,,,,b,,,(based on tag)
315,DF_1,DisFirst_reg,,-0.7867820613690008,,J_M,(based on tag),,1271,"Pref (25, gotebe.wav)",DF_1,737436,,,,,b,,,(based on tag)
316,DF_1,DisFirst_reg,,-0.8658008658008658,,J_M,(based on tag),,1155,"Pref (4, bugip.wav)",DF_1,738746,,,,,p,,,(based on tag)
317,DF_1,DisFirst_reg,,-0.9057971014492754,,J_M,(based on tag),,1104,"Pref (7, dogip.wav)",DF_1,740016,,,,,p,,,(based on tag)
318,DF_1,DisFirst_reg,,-0.9372071227741331,,J_M,(based on tag),,1067,"Pref (2, bikup.wav)",DF_1,741235,,,,,p,,,(based on tag)
319,DF_1,DisFirst_reg,,-0.43917435221783047,,J_M,(any response),,2277,Please take a b...,DF_1,742445,,,,,,,,(any response)
320,DF_1,DisFirst_reg,,-0.40096230954290296,,J_M,(based on tag),,2494,"Pref (26, gutobe.wav)",DF_1,745165,,,,,b,,,(based on tag)
321,DF_1,DisFirst_reg,,-0.8598452278589854,,J_M,(based on tag),,1163,"Pref (10, gutop.wav)",DF_1,746484,,,,,p,,,(based on tag)
322,DF_1,DisFirst_reg,,-0.7204610951008645,,J_M,(based on tag),,1388,"Pref (28, pigebe.wav)",DF_1,748074,,,,,b,,,(based on tag)
323,DF_1,DisFirst_reg,,-0.7593014426727411,,J_M,(based on tag),,1317,"Pref (25, gotebe.wav)",DF_1,749544,,,,,b,,,(based on tag)
324,DF_1,DisFirst_reg,,-0.7776049766718507,,J_M,(based on tag),,1286,"Pref (3, bogep.wav)",DF_1,750983,,,,,p,,,(based on tag)
325,DF_1,DisFirst_reg,,-0.800640512409928,,J_M,(based on tag),,1249,"Pref (9, gotep.wav)",DF_1,752384,,,,,p,,,(based on tag)
326,DF_1,DisFirst_reg,,-0.8445945945945946,,J_M,(based on tag),,1184,"Pref (6, dikep.wav)",DF_1,753723,,,,,p,,,(based on tag)
327,DF_1,DisFirst_reg,,-0.4725897920604915,,J_M,(based on tag),,2116,"Pref (5, degop.wav)",DF_1,756014,,,,,p,,,(based on tag)
328,DF_1,DisFirst_reg,,-0.7401924500370096,,J_M,(based on tag),,1351,"Pref (29, potibe.wav)",DF_1,757572,,,,,b,,,(based on tag)
329,DF_1,DisFirst_reg,,-0.7468259895444361,,J_M,(based on tag),,1339,"Pref (13, potip.wav)",DF_1,759072,,,,,p,,,(based on tag)
330,DF_1,DisFirst_reg,,-0.8665511265164645,,J_M,(based on tag),,1154,"Pref (20, bugibe.wav)",DF_1,760382,,,,,b,,,(based on tag)
331,DF_1,DisFirst_reg,,-0.8417508417508418,,J_M,(based on tag),,1188,"Pref (17, bidobe.wav)",DF_1,761842,,,,,b,,,(based on tag)
332,DF_1,DisFirst_reg,,-0.7194244604316546,,J_M,(based on tag),,1390,"Pref (15, todip.wav)",DF_1,763391,,,,,p,,,(based on tag)
333,DF_1,DisFirst_reg,,-0.3904724716907458,,J_M,(based on tag),,2561,"Pref (2, bikup.wav)",DF_1,766111,,,,,p,,,(based on tag)
334,DF_1,DisFirst_reg,,-0.5202913631633714,,J_M,(based on tag),,1922,"Pref (31, todibe.wav)",DF_1,768180,,,,,b,,,(based on tag)
335,DF_1,DisFirst_reg,,-0.3141690229343387,,J_M,(based on tag),,3183,"Pref (14, tekup.wav)",DF_1,771510,,,,,p,,,(based on tag)
336,DF_1,DisFirst_reg,,-0.5293806246691372,,J_M,(based on tag),,1889,"Pref (27, pidobe.wav)",DF_1,773549,,,,,b,,,(based on tag)
337,DF_1,DisFirst_reg,,-0.6042296072507553,,J_M,(based on tag),,1655,"Pref (22, dikebe.wav)",DF_1,775359,,,,,b,,,(based on tag)
338,DF_1,DisFirst_reg,,-0.819000819000819,,J_M,(based on tag),,1221,"Pref (4, bugip.wav)",DF_1,776729,,,,,p,,,(based on tag)
339,DF_1,DisFirst_reg,,-0.7727975270479135,,J_M,(based on tag),,1294,"Pref (21, degobe.wav)",DF_1,778188,,,,,b,,,(based on tag)
340,DF_1,DisFirst_reg,,-0.6802721088435374,,J_M,(based on tag),,1470,"Pref (7, dogip.wav)",DF_1,779808,,,,,p,,,(based on tag)
341,DF_1,DisFirst_reg,,-0.7067137809187279,,J_M,(based on tag),,1415,"Pref (24, dokube.wav)",DF_1,781368,,,,,b,,,(based on tag)
342,DF_1,DisFirst_reg,,-0.6523157208088715,,J_M,(based on tag),,1533,"Pref (32, todube.wav)",DF_1,783048,,,,,b,,,(based on tag)
343,DF_1,DisFirst_reg,,-0.6978367062107467,,J_M,(based on tag),,1433,"Pref (18, bikube.wav)",DF_1,784648,,,,,b,,,(based on tag)
344,DF_1,DisFirst_reg,,-0.7451564828614009,,J_M,(based on tag),,1342,"Pref (8, dokup.wav)",DF_1,786157,,,,,p,,,(based on tag)
345,DF_1,DisFirst_reg,,-0.6365372374283895,,J_M,(based on tag),,1571,"Pref (30, tekube.wav)",DF_1,787877,,,,,b,,,(based on tag)
346,DF_1,DisFirst_reg,,-0.7880220646178093,,J_M,(based on tag),,1269,"Pref (12, pigep.wav)",DF_1,789296,,,,,p,,,(based on tag)
347,DF_1,DisFirst_reg,,-0.42535091450446616,,J_M,(based on tag),,2351,"Pref (19, bogebe.wav)",DF_1,791796,,,,,b,,,(based on tag)
348,DF_1,DisFirst_reg,,-0.693000693000693,,J_M,(based on tag),,1443,"Pref (11, pidop.wav)",DF_1,793397,,,,,p,,,(based on tag)
349,DF_1,DisFirst_reg,,-0.6527415143603134,,J_M,(based on tag),,1532,"Pref (23, dogibe.wav)",DF_1,795096,,,,,b,,,(based on tag)
350,DF_1,DisFirst_reg,,-0.7429420505200595,,J_M,(based on tag),,1346,"Pref (1, bidop.wav)",DF_1,796595,,,,,p,,,(based on tag)
351,DF_1,DisFirst_reg,,-0.7836990595611285,,J_M,(based on tag),,1276,"Pref (16, todup.wav)",DF_1,798025,,,,,p,,,(based on tag)
352,DF_1,DisFirst_reg,,-0.32404406999351915,,J_M,(any response),,3086,Please take a b...,DF_1,799835,,,,,,,,(any response)
353,DF_1,DisFirst_reg,,-0.08950147677436678,,J_M,(any response),,11173,Debreifing,DF_1,811223,,,,,,,,(any response)
