Unnamed: 0,expt_id,Group,group_id,invRT,Trial,participant_id,response_correct,response_name,response_rt,stimuli_presented,trial_template,trial_duration,PartBlocks,AllBlocks,Pattern,trial_num,PB,Final,Part,Correct
1,AP,DDisFirst_reg,,-0.0354433968951584,,DFi_2,(any response),,28214,Practice_Instructions,AP,28599,,,,,,,,(any response)
2,AP,DisFirst_reg,,-111.11111111111111,,DFi_2,(based on tag),,9,"Practice (1, bumblebee.wav)",AP,29129,,,,,b,,,(based on tag)
3,AP,DisFirst_reg,,-0.3377237419790611,,DFi_2,(based on tag),,2961,"Practice (2, canopy.wav)",AP,32708,,,,,p,,,(based on tag)
4,AP,DisFirst_reg,,-0.9372071227741332,,DFi_2,(based on tag),,1067,"Practice (3, cob.wav)",AP,34398,,,,,b,,,(based on tag)
5,AP,DisFirst_reg,,-0.4616805170821791,,DFi_2,(based on tag),,2166,"Practice (4, copy.wav)",AP,37208,,,,,p,,,(based on tag)
6,AP,DisFirst_reg,,-0.6535947712418301,,DFi_2,(based on tag),,1530,"Practice (5, crab.wav)",AP,39377,,,,,b,,,(based on tag)
7,AP,DisFirst_reg,,-1.0224948875255624,,DFi_2,(based on tag),,978,"Practice (6, crimp.wav)",AP,41027,,,,,p,,,(based on tag)
8,AP,DisFirst_reg,,-1.0482180293501049,,DFi_2,(based on tag),,954,"Practice (7, flop.wav)",AP,42607,,,,,p,,,(based on tag)
9,AP,DisFirst_reg,,-0.9487666034155596,,DFi_2,(based on tag),,1054,"Practice (8, grab.wav)",AP,44276,,,,,b,,,(based on tag)
10,AP,DisFirst_reg,,-1.0638297872340423,,DFi_2,(based on tag),,940,"Practice (9, grub.wav)",AP,45866,,,,,b,,,(based on tag)
11,AP,DisFirst_reg,,-1.0482180293501049,,DFi_2,(based on tag),,954,"Practice (10, hippie.wav)",AP,47456,,,,,p,,,(based on tag)
12,AP,DisFirst_reg,,-1.1111111111111112,,DFi_2,(based on tag),,900,"Practice (11, lobe.wav)",AP,49005,,,,,b,,,(based on tag)
13,AP,DisFirst_reg,,-0.9090909090909092,,DFi_2,(based on tag),,1100,"Practice (12, maybe.wav)",AP,50715,,,,,b,,,(based on tag)
14,AP,DisFirst_reg,,-0.8403361344537815,,DFi_2,(based on tag),,1190,"Practice (13, placebo.wav)",AP,52514,,,,,b,,,(based on tag)
15,AP,DisFirst_reg,,-0.8237232289950577,,DFi_2,(based on tag),,1214,"Practice (14, pope.wav)",AP,54334,,,,,p,,,(based on tag)
16,AP,DisFirst_reg,,-0.8643042350907519,,DFi_2,(based on tag),,1157,"Practice (15, ripe.wav)",AP,56134,,,,,p,,,(based on tag)
17,AP,DisFirst_reg,,-0.929368029739777,,DFi_2,(based on tag),,1076,"Practice (16, scuba.wav)",AP,57824,,,,,b,,,(based on tag)
18,AP,DisFirst_reg,,-0.9861932938856016,,DFi_2,(based on tag),,1014,"Practice (17, shape.wav)",AP,59454,,,,,p,,,(based on tag)
19,AP,DisFirst_reg,,-0.7547169811320755,,DFi_2,(based on tag),,1325,"Practice (18, toupee.wav)",AP,61393,,,,,p,,,(based on tag)
20,AP,DisFirst_reg,,-0.8532423208191127,,DFi_2,(based on tag),,1172,"Practice (19, typo.wav)",AP,63183,,,,,p,,,(based on tag)
21,AP,DisFirst_reg,,-0.942507068803016,,DFi_2,(based on tag),,1061,"Practice (20, wallaby.wav)",AP,64882,,,,,b,,,(based on tag)
22,AP,DisFirst_reg,,-0.111694404110354,,DFi_2,(any response),,8953,Instructions,AP,74401,,,,,,,,(any response)
23,AP,DisFirst_reg,,-0.4777830864787386,,DFi_2,(based on tag),,2093,"dispref (15, dokub.wav)",AP,76660,,,,,b,,,(based on tag)
24,AP,DisFirst_reg,,-0.5910165484633569,,DFi_2,(based on tag),,1692,"dispref (2, bidope.wav)",AP,78540,,,,,p,,,(based on tag)
25,AP,DisFirst_reg,,-0.6127450980392157,,DFi_2,(based on tag),,1632,"dispref (25, potib.wav)",AP,80319,,,,,b,,,(based on tag)
26,AP,DisFirst_reg,,-0.6447453255963894,,DFi_2,(based on tag),,1551,"dispref (8, bugipe.wav)",AP,82029,,,,,p,,,(based on tag)
27,AP,DisFirst_reg,,-0.7369196757553427,,DFi_2,(based on tag),,1357,"dispref (21, pidob.wav)",AP,83549,,,,,b,,,(based on tag)
28,AP,DisFirst_reg,,-0.723589001447178,,DFi_2,(based on tag),,1382,"dispref (30, todipe.wav)",AP,85089,,,,,p,,,(based on tag)
29,AP,DisFirst_reg,,-0.6150061500615006,,DFi_2,(based on tag),,1626,"dispref (4, bikupe.wav)",AP,86888,,,,,p,,,(based on tag)
30,AP,DisFirst_reg,,-0.6891798759476223,,DFi_2,(based on tag),,1451,"dispref (10, degope.wav)",AP,88528,,,,,p,,,(based on tag)
31,AP,DisFirst_reg,,-0.5399568034557235,,DFi_2,(based on tag),,1852,"dispref (29, todib.wav)",AP,90548,,,,,b,,,(based on tag)
32,AP,DisFirst_reg,,-0.6108735491753207,,DFi_2,(based on tag),,1637,"dispref (18, gotepe.wav)",AP,92387,,,,,p,,,(based on tag)
33,AP,DisFirst_reg,,-0.8532423208191127,,DFi_2,(based on tag),,1172,"dispref (1, bidob.wav)",AP,93717,,,,,b,,,(based on tag)
34,AP,DisFirst_reg,,-0.6729475100942126,,DFi_2,(based on tag),,1486,"dispref (12, dikepe.wav)",AP,95357,,,,,p,,,(based on tag)
35,AP,DisFirst_reg,,-0.8116883116883117,,DFi_2,(based on tag),,1232,"dispref (23, pigeb.wav)",AP,96737,,,,,b,,,(based on tag)
36,AP,DisFirst_reg,,-0.7468259895444361,,DFi_2,(based on tag),,1339,"dispref (24, pigepe.wav)",AP,98236,,,,,p,,,(based on tag)
37,AP,DisFirst_reg,,-0.7267441860465116,,DFi_2,(based on tag),,1376,"dispref (28, tekupe.wav)",AP,99766,,,,,p,,,(based on tag)
38,AP,DisFirst_reg,,-0.987166831194472,,DFi_2,(based on tag),,1013,"dispref (5, bogeb.wav)",AP,100946,,,,,b,,,(based on tag)
39,AP,DisFirst_reg,,-0.8748906386701663,,DFi_2,(based on tag),,1143,"dispref (7, bugib.wav)",AP,102245,,,,,b,,,(based on tag)
40,AP,DisFirst_reg,,-0.7898894154818326,,DFi_2,(based on tag),,1266,"dispref (26, potipe.wav)",AP,103665,,,,,p,,,(based on tag)
41,AP,DisFirst_reg,,-0.8873114463176575,,DFi_2,(based on tag),,1127,"dispref (9, degob.wav)",AP,104955,,,,,b,,,(based on tag)
42,AP,DisFirst_reg,,-0.800640512409928,,DFi_2,(based on tag),,1249,"dispref (14, dogipe.wav)",AP,106365,,,,,p,,,(based on tag)
43,AP,DisFirst_reg,,-0.7911392405063291,,DFi_2,(based on tag),,1264,"dispref (11, dikeb.wav)",AP,107814,,,,,b,,,(based on tag)
44,AP,DisFirst_reg,,-0.9433962264150944,,DFi_2,(based on tag),,1060,"dispref (27, tekub.wav)",AP,109024,,,,,b,,,(based on tag)
45,AP,DisFirst_reg,,-0.9970089730807578,,DFi_2,(based on tag),,1003,"dispref (31, todub.wav)",AP,110194,,,,,b,,,(based on tag)
46,AP,DisFirst_reg,,-0.6609385327164574,,DFi_2,(based on tag),,1513,"dispref (20, gutope.wav)",AP,111854,,,,,p,,,(based on tag)
47,AP,DisFirst_reg,,-0.3835826620636747,,DFi_2,(based on tag),,2607,"dispref (13, dogib.wav)",AP,114623,,,,,b,,,(based on tag)
48,AP,DisFirst_reg,,-0.5688282138794084,,DFi_2,(based on tag),,1758,"dispref (22, pidope.wav)",AP,116573,,,,,p,,,(based on tag)
49,AP,DisFirst_reg,,-0.6325110689437066,,DFi_2,(based on tag),,1581,"dispref (32, todupe.wav)",AP,118302,,,,,p,,,(based on tag)
50,AP,DisFirst_reg,,-0.7886435331230284,,DFi_2,(based on tag),,1268,"dispref (17, goteb.wav)",AP,119772,,,,,b,,,(based on tag)
51,AP,DisFirst_reg,,-0.7147962830593281,,DFi_2,(based on tag),,1399,"dispref (3, bikub.wav)",AP,121342,,,,,b,,,(based on tag)
52,AP,DisFirst_reg,,-0.8787346221441125,,DFi_2,(based on tag),,1138,"dispref (19, gutob.wav)",AP,122632,,,,,b,,,(based on tag)
53,AP,DisFirst_reg,,-0.7704160246533128,,DFi_2,(based on tag),,1298,"dispref (6, bogepe.wav)",AP,124081,,,,,p,,,(based on tag)
54,AP,DisFirst_reg,,-0.5361930294906166,,DFi_2,(based on tag),,1865,"dispref (16, dokupe.wav)",AP,126101,,,,,p,,,(based on tag)
55,AP,DisFirst_reg,,-0.1627604166666666,,DFi_2,(any response),,6144,Please take a b...,AP,130380,,,,,,,,(any response)
56,AP,DisFirst_reg,,-0.7830853563038371,,DFi_2,(based on tag),,1277,"dispref (24, pigepe.wav)",AP,131930,,,,,p,,,(based on tag)
57,AP,DisFirst_reg,,-0.7374631268436578,,DFi_2,(based on tag),,1356,"dispref (4, bikupe.wav)",AP,133440,,,,,p,,,(based on tag)
58,AP,DisFirst_reg,,-0.7326007326007326,,DFi_2,(based on tag),,1365,"dispref (10, degope.wav)",AP,134979,,,,,p,,,(based on tag)
59,AP,DisFirst_reg,,-0.7558578987150416,,DFi_2,(based on tag),,1323,"dispref (26, potipe.wav)",AP,136509,,,,,p,,,(based on tag)
60,AP,DisFirst_reg,,-0.8984725965858041,,DFi_2,(based on tag),,1113,"dispref (23, pigeb.wav)",AP,137799,,,,,b,,,(based on tag)
61,AP,DisFirst_reg,,-0.823045267489712,,DFi_2,(based on tag),,1215,"dispref (14, dogipe.wav)",AP,139169,,,,,p,,,(based on tag)
62,AP,DisFirst_reg,,-0.7304601899196493,,DFi_2,(based on tag),,1369,"dispref (32, todupe.wav)",AP,140709,,,,,p,,,(based on tag)
63,AP,DisFirst_reg,,-0.7457121551081283,,DFi_2,(based on tag),,1341,"dispref (22, pidope.wav)",AP,142208,,,,,p,,,(based on tag)
64,AP,DisFirst_reg,,-1.002004008016032,,DFi_2,(based on tag),,998,"dispref (27, tekub.wav)",AP,143378,,,,,b,,,(based on tag)
65,AP,DisFirst_reg,,-0.6605019815059445,,DFi_2,(based on tag),,1514,"dispref (13, dogib.wav)",AP,145108,,,,,b,,,(based on tag)
66,AP,DisFirst_reg,,-0.8347245409015025,,DFi_2,(based on tag),,1198,"dispref (30, todipe.wav)",AP,146497,,,,,p,,,(based on tag)
67,AP,DisFirst_reg,,-0.7209805335255948,,DFi_2,(based on tag),,1387,"dispref (28, tekupe.wav)",AP,148107,,,,,p,,,(based on tag)
68,AP,DisFirst_reg,,-1.050420168067227,,DFi_2,(based on tag),,952,"dispref (1, bidob.wav)",AP,149207,,,,,b,,,(based on tag)
69,AP,DisFirst_reg,,-0.7369196757553427,,DFi_2,(based on tag),,1357,"dispref (20, gutope.wav)",AP,150717,,,,,p,,,(based on tag)
70,AP,DisFirst_reg,,-0.9699321047526672,,DFi_2,(based on tag),,1031,"dispref (5, bogeb.wav)",AP,151947,,,,,b,,,(based on tag)
71,AP,DisFirst_reg,,-0.973709834469328,,DFi_2,(based on tag),,1027,"dispref (31, todub.wav)",AP,153126,,,,,b,,,(based on tag)
72,AP,DisFirst_reg,,-0.9891196834817012,,DFi_2,(based on tag),,1011,"dispref (15, dokub.wav)",AP,154286,,,,,b,,,(based on tag)
73,AP,DisFirst_reg,,-0.76103500761035,,DFi_2,(based on tag),,1314,"dispref (12, dikepe.wav)",AP,155766,,,,,p,,,(based on tag)
74,AP,DisFirst_reg,,-0.7251631617113851,,DFi_2,(based on tag),,1379,"dispref (2, bidope.wav)",AP,157296,,,,,p,,,(based on tag)
75,AP,DisFirst_reg,,-0.7680491551459293,,DFi_2,(based on tag),,1302,"dispref (16, dokupe.wav)",AP,158765,,,,,p,,,(based on tag)
76,AP,DisFirst_reg,,-0.6317119393556538,,DFi_2,(based on tag),,1583,"dispref (6, bogepe.wav)",AP,160505,,,,,p,,,(based on tag)
77,AP,DisFirst_reg,,-1.0319917440660475,,DFi_2,(based on tag),,969,"dispref (19, gutob.wav)",AP,161634,,,,,b,,,(based on tag)
78,AP,DisFirst_reg,,-1.0,,DFi_2,(based on tag),,1000,"dispref (11, dikeb.wav)",AP,162784,,,,,b,,,(based on tag)
79,AP,DisFirst_reg,,-0.5668934240362812,,DFi_2,(based on tag),,1764,"dispref (25, potib.wav)",AP,164714,,,,,b,,,(based on tag)
80,AP,DisFirst_reg,,-0.7479431563201197,,DFi_2,(based on tag),,1337,"dispref (3, bikub.wav)",AP,166214,,,,,b,,,(based on tag)
81,AP,DisFirst_reg,,-0.7974481658692185,,DFi_2,(based on tag),,1254,"dispref (8, bugipe.wav)",AP,167613,,,,,p,,,(based on tag)
82,AP,DisFirst_reg,,-0.5431830526887561,,DFi_2,(based on tag),,1841,"dispref (7, bugib.wav)",AP,169623,,,,,b,,,(based on tag)
83,AP,DisFirst_reg,,-1.0030090270812435,,DFi_2,(based on tag),,997,"dispref (21, pidob.wav)",AP,170783,,,,,b,,,(based on tag)
84,AP,DisFirst_reg,,-0.4342162396873643,,DFi_2,(based on tag),,2303,"dispref (17, goteb.wav)",AP,173243,,,,,b,,,(based on tag)
85,AP,DisFirst_reg,,-0.7127583749109052,,DFi_2,(based on tag),,1403,"dispref (18, gotepe.wav)",AP,174812,,,,,p,,,(based on tag)
86,AP,DisFirst_reg,,-0.683526999316473,,DFi_2,(based on tag),,1463,"dispref (9, degob.wav)",AP,176432,,,,,b,,,(based on tag)
87,AP,DisFirst_reg,,-0.6802721088435374,,DFi_2,(based on tag),,1470,"dispref (29, todib.wav)",AP,178062,,,,,b,,,(based on tag)
88,AP,DisFirst_reg,,-0.2519526329050138,,DFi_2,(any response),,3969,Please take a b...,AP,180561,,,,,,,,(any response)
89,AP,DisFirst_reg,,-0.8071025020177562,,DFi_2,(based on tag),,1239,"dispref (17, goteb.wav)",AP,182061,,,,,b,,,(based on tag)
90,AP,DisFirst_reg,,-0.922509225092251,,DFi_2,(based on tag),,1084,"dispref (25, potib.wav)",AP,183300,,,,,b,,,(based on tag)
91,AP,DisFirst_reg,,-0.5672149744753261,,DFi_2,(based on tag),,1763,"dispref (11, dikeb.wav)",AP,185230,,,,,b,,,(based on tag)
92,AP,DisFirst_reg,,-0.7898894154818326,,DFi_2,(based on tag),,1266,"dispref (23, pigeb.wav)",AP,186650,,,,,b,,,(based on tag)
93,AP,DisFirst_reg,,-0.8312551953449709,,DFi_2,(based on tag),,1203,"dispref (24, pigepe.wav)",AP,188010,,,,,p,,,(based on tag)
94,AP,DisFirst_reg,,-0.9615384615384616,,DFi_2,(based on tag),,1040,"dispref (9, degob.wav)",AP,189240,,,,,b,,,(based on tag)
95,AP,DisFirst_reg,,-0.9157509157509156,,DFi_2,(based on tag),,1092,"dispref (19, gutob.wav)",AP,190489,,,,,b,,,(based on tag)
96,AP,DisFirst_reg,,-0.5605381165919282,,DFi_2,(based on tag),,1784,"dispref (12, dikepe.wav)",AP,192429,,,,,p,,,(based on tag)
97,AP,DisFirst_reg,,-0.5747126436781609,,DFi_2,(based on tag),,1740,"dispref (28, tekupe.wav)",AP,194329,,,,,p,,,(based on tag)
98,AP,DisFirst_reg,,-0.8613264427217916,,DFi_2,(based on tag),,1161,"dispref (27, tekub.wav)",AP,195638,,,,,b,,,(based on tag)
99,AP,DisFirst_reg,,-0.946969696969697,,DFi_2,(based on tag),,1056,"dispref (5, bogeb.wav)",AP,196858,,,,,b,,,(based on tag)
100,AP,DisFirst_reg,,-0.7993605115907274,,DFi_2,(based on tag),,1251,"dispref (6, bogepe.wav)",AP,198308,,,,,p,,,(based on tag)
101,AP,DisFirst_reg,,-0.7639419404125286,,DFi_2,(based on tag),,1309,"dispref (16, dokupe.wav)",AP,199778,,,,,p,,,(based on tag)
102,AP,DisFirst_reg,,-1.1376564277588168,,DFi_2,(based on tag),,879,"dispref (7, bugib.wav)",AP,200807,,,,,b,,,(based on tag)
103,AP,DisFirst_reg,,-0.9587727708533078,,DFi_2,(based on tag),,1043,"dispref (26, potipe.wav)",AP,202037,,,,,p,,,(based on tag)
104,AP,DisFirst_reg,,-0.6609385327164574,,DFi_2,(based on tag),,1513,"dispref (29, todib.wav)",AP,203917,,,,,b,,,(based on tag)
105,AP,DisFirst_reg,,-0.5022601707684581,,DFi_2,(based on tag),,1991,"dispref (21, pidob.wav)",AP,206057,,,,,b,,,(based on tag)
106,AP,DisFirst_reg,,-0.6738544474393531,,DFi_2,(based on tag),,1484,"dispref (30, todipe.wav)",AP,207696,,,,,p,,,(based on tag)
107,AP,DisFirst_reg,,-0.8410428931875525,,DFi_2,(based on tag),,1189,"dispref (32, todupe.wav)",AP,209036,,,,,p,,,(based on tag)
108,AP,DisFirst_reg,,-0.7530120481927711,,DFi_2,(based on tag),,1328,"dispref (13, dogib.wav)",AP,210596,,,,,b,,,(based on tag)
109,AP,DisFirst_reg,,-0.6578947368421053,,DFi_2,(based on tag),,1520,"dispref (20, gutope.wav)",AP,212265,,,,,p,,,(based on tag)
110,AP,DisFirst_reg,,-0.6729475100942126,,DFi_2,(based on tag),,1486,"dispref (2, bidope.wav)",AP,213905,,,,,p,,,(based on tag)
111,AP,DisFirst_reg,,-0.7320644216691069,,DFi_2,(based on tag),,1366,"dispref (10, degope.wav)",AP,215425,,,,,p,,,(based on tag)
112,AP,DisFirst_reg,,-0.8312551953449709,,DFi_2,(based on tag),,1203,"dispref (31, todub.wav)",AP,216775,,,,,b,,,(based on tag)
113,AP,DisFirst_reg,,-0.8598452278589854,,DFi_2,(based on tag),,1163,"dispref (3, bikub.wav)",AP,218094,,,,,b,,,(based on tag)
114,AP,DisFirst_reg,,-0.4116920543433511,,DFi_2,(based on tag),,2429,"dispref (8, bugipe.wav)",AP,220674,,,,,p,,,(based on tag)
115,AP,DisFirst_reg,,-0.7627765064836003,,DFi_2,(based on tag),,1311,"dispref (14, dogipe.wav)",AP,222173,,,,,p,,,(based on tag)
116,AP,DisFirst_reg,,-1.017293997965412,,DFi_2,(based on tag),,983,"dispref (15, dokub.wav)",AP,223313,,,,,b,,,(based on tag)
117,AP,DisFirst_reg,,-0.7686395080707148,,DFi_2,(based on tag),,1301,"dispref (18, gotepe.wav)",AP,224793,,,,,p,,,(based on tag)
118,AP,DisFirst_reg,,-0.7127583749109052,,DFi_2,(based on tag),,1403,"dispref (22, pidope.wav)",AP,226383,,,,,p,,,(based on tag)
119,AP,DisFirst_reg,,-1.0905125408942202,,DFi_2,(based on tag),,917,"dispref (1, bidob.wav)",AP,227452,,,,,b,,,(based on tag)
120,AP,DisFirst_reg,,-0.6447453255963894,,DFi_2,(based on tag),,1551,"dispref (4, bikupe.wav)",AP,229162,,,,,p,,,(based on tag)
121,AP,DisFirst_reg,,-0.2644802962179318,,DFi_2,(any response),,3781,Please take a b...,AP,231392,,,,,,,,(any response)
122,AP,DisFirst_reg,,-0.6784260515603799,,DFi_2,(based on tag),,1474,"dispref (32, todupe.wav)",AP,233081,,,,,p,,,(based on tag)
123,AP,DisFirst_reg,,-1.017293997965412,,DFi_2,(based on tag),,983,"dispref (11, dikeb.wav)",AP,234221,,,,,b,,,(based on tag)
124,AP,DisFirst_reg,,-0.927643784786642,,DFi_2,(based on tag),,1078,"dispref (29, todib.wav)",AP,235471,,,,,b,,,(based on tag)
125,AP,DisFirst_reg,,-0.7374631268436578,,DFi_2,(based on tag),,1356,"dispref (27, tekub.wav)",AP,237021,,,,,b,,,(based on tag)
126,AP,DisFirst_reg,,-0.8460236886632826,,DFi_2,(based on tag),,1182,"dispref (1, bidob.wav)",AP,238361,,,,,b,,,(based on tag)
127,AP,DisFirst_reg,,-0.7668711656441718,,DFi_2,(based on tag),,1304,"dispref (26, potipe.wav)",AP,239830,,,,,p,,,(based on tag)
128,AP,DisFirst_reg,,-1.0570824524312896,,DFi_2,(based on tag),,946,"dispref (23, pigeb.wav)",AP,240940,,,,,b,,,(based on tag)
129,AP,DisFirst_reg,,-0.6501950585175552,,DFi_2,(based on tag),,1538,"dispref (4, bikupe.wav)",AP,242630,,,,,p,,,(based on tag)
130,AP,DisFirst_reg,,-0.7407407407407407,,DFi_2,(based on tag),,1350,"dispref (18, gotepe.wav)",AP,244139,,,,,p,,,(based on tag)
131,AP,DisFirst_reg,,-0.5865102639296188,,DFi_2,(based on tag),,1705,"dispref (22, pidope.wav)",AP,246009,,,,,p,,,(based on tag)
132,AP,DisFirst_reg,,-0.8944543828264758,,DFi_2,(based on tag),,1118,"dispref (3, bikub.wav)",AP,247299,,,,,b,,,(based on tag)
133,AP,DisFirst_reg,,-0.6464124111182935,,DFi_2,(based on tag),,1547,"dispref (21, pidob.wav)",AP,249009,,,,,b,,,(based on tag)
134,AP,DisFirst_reg,,-0.7168458781362007,,DFi_2,(based on tag),,1395,"dispref (8, bugipe.wav)",AP,250618,,,,,p,,,(based on tag)
135,AP,DisFirst_reg,,-0.966183574879227,,DFi_2,(based on tag),,1035,"dispref (7, bugib.wav)",AP,251808,,,,,b,,,(based on tag)
136,AP,DisFirst_reg,,-0.3808073115003808,,DFi_2,(based on tag),,2626,"dispref (9, degob.wav)",AP,254618,,,,,b,,,(based on tag)
137,AP,DisFirst_reg,,-0.9233610341643582,,DFi_2,(based on tag),,1083,"dispref (5, bogeb.wav)",AP,255857,,,,,b,,,(based on tag)
138,AP,DisFirst_reg,,-0.6896551724137931,,DFi_2,(based on tag),,1450,"dispref (20, gutope.wav)",AP,257467,,,,,p,,,(based on tag)
139,AP,DisFirst_reg,,-0.6317119393556538,,DFi_2,(based on tag),,1583,"dispref (10, degope.wav)",AP,259207,,,,,p,,,(based on tag)
140,AP,DisFirst_reg,,-0.5868544600938967,,DFi_2,(based on tag),,1704,"dispref (12, dikepe.wav)",AP,261076,,,,,p,,,(based on tag)
141,AP,DisFirst_reg,,-0.6211180124223602,,DFi_2,(based on tag),,1610,"dispref (24, pigepe.wav)",AP,262836,,,,,p,,,(based on tag)
142,AP,DisFirst_reg,,-1.303780964797914,,DFi_2,(based on tag),,767,"dispref (19, gutob.wav)",AP,263756,,,,,b,,,(based on tag)
143,AP,DisFirst_reg,,-0.9363295880149812,,DFi_2,(based on tag),,1068,"dispref (17, goteb.wav)",AP,265106,,,,,b,,,(based on tag)
144,AP,DisFirst_reg,,-0.8771929824561403,,DFi_2,(based on tag),,1140,"dispref (30, todipe.wav)",AP,266396,,,,,p,,,(based on tag)
145,AP,DisFirst_reg,,-0.777000777000777,,DFi_2,(based on tag),,1287,"dispref (28, tekupe.wav)",AP,267965,,,,,p,,,(based on tag)
146,AP,DisFirst_reg,,-0.7818608287724785,,DFi_2,(based on tag),,1279,"dispref (2, bidope.wav)",AP,269405,,,,,p,,,(based on tag)
147,AP,DisFirst_reg,,-0.5017561465127948,,DFi_2,(based on tag),,1993,"dispref (6, bogepe.wav)",AP,271564,,,,,p,,,(based on tag)
148,AP,DisFirst_reg,,-1.0214504596527068,,DFi_2,(based on tag),,979,"dispref (31, todub.wav)",AP,272694,,,,,b,,,(based on tag)
149,AP,DisFirst_reg,,-0.819000819000819,,DFi_2,(based on tag),,1221,"dispref (15, dokub.wav)",AP,274064,,,,,b,,,(based on tag)
150,AP,DisFirst_reg,,-0.7513148009015778,,DFi_2,(based on tag),,1331,"dispref (14, dogipe.wav)",AP,275544,,,,,p,,,(based on tag)
151,AP,DisFirst_reg,,-0.7189072609633357,,DFi_2,(based on tag),,1391,"dispref (25, potib.wav)",AP,277084,,,,,b,,,(based on tag)
152,AP,DisFirst_reg,,-0.7541478129713424,,DFi_2,(based on tag),,1326,"dispref (13, dogib.wav)",AP,278563,,,,,b,,,(based on tag)
153,AP,DisFirst_reg,,-0.9140767824497258,,DFi_2,(based on tag),,1094,"dispref (16, dokupe.wav)",AP,279803,,,,,p,,,(based on tag)
154,AP,DisFirst_reg,,-0.3443526170798898,,DFi_2,(any response),,2904,Please take a b...,AP,281613,,,,,,,,(any response)
155,AP,DisFirst_reg,,-0.6765899864682002,,DFi_2,(based on tag),,1478,"dispref (8, bugipe.wav)",AP,283312,,,,,p,,,(based on tag)
156,AP,DisFirst_reg,,-0.925925925925926,,DFi_2,(based on tag),,1080,"dispref (13, dogib.wav)",AP,284562,,,,,b,,,(based on tag)
157,AP,DisFirst_reg,,-0.8703220191470844,,DFi_2,(based on tag),,1149,"dispref (10, degope.wav)",AP,285862,,,,,p,,,(based on tag)
158,AP,DisFirst_reg,,-0.6934812760055479,,DFi_2,(based on tag),,1442,"dispref (30, todipe.wav)",AP,287571,,,,,p,,,(based on tag)
159,AP,DisFirst_reg,,-0.8271298593879239,,DFi_2,(based on tag),,1209,"dispref (26, potipe.wav)",AP,288931,,,,,p,,,(based on tag)
160,AP,DisFirst_reg,,-1.182033096926714,,DFi_2,(based on tag),,846,"dispref (11, dikeb.wav)",AP,289981,,,,,b,,,(based on tag)
161,AP,DisFirst_reg,,-0.5980861244019139,,DFi_2,(based on tag),,1672,"dispref (29, todib.wav)",AP,291861,,,,,b,,,(based on tag)
162,AP,DisFirst_reg,,-0.8896797153024911,,DFi_2,(based on tag),,1124,"dispref (25, potib.wav)",AP,293151,,,,,b,,,(based on tag)
163,AP,DisFirst_reg,,-0.6142506142506142,,DFi_2,(based on tag),,1628,"dispref (6, bogepe.wav)",AP,294930,,,,,p,,,(based on tag)
164,AP,DisFirst_reg,,-0.5364806866952789,,DFi_2,(based on tag),,1864,"dispref (9, degob.wav)",AP,296980,,,,,b,,,(based on tag)
165,AP,DisFirst_reg,,-0.7336757153338225,,DFi_2,(based on tag),,1363,"dispref (28, tekupe.wav)",AP,298530,,,,,p,,,(based on tag)
166,AP,DisFirst_reg,,-0.6557377049180327,,DFi_2,(based on tag),,1525,"dispref (16, dokupe.wav)",AP,300249,,,,,p,,,(based on tag)
167,AP,DisFirst_reg,,-0.7598784194528876,,DFi_2,(based on tag),,1316,"dispref (7, bugib.wav)",AP,301719,,,,,b,,,(based on tag)
168,AP,DisFirst_reg,,-0.5977286312014346,,DFi_2,(based on tag),,1673,"dispref (1, bidob.wav)",AP,303539,,,,,b,,,(based on tag)
169,AP,DisFirst_reg,,-0.5488474204171241,,DFi_2,(based on tag),,1822,"dispref (12, dikepe.wav)",AP,305548,,,,,p,,,(based on tag)
170,AP,DisFirst_reg,,-0.9852216748768472,,DFi_2,(based on tag),,1015,"dispref (21, pidob.wav)",AP,306728,,,,,b,,,(based on tag)
171,AP,DisFirst_reg,,-0.9671179883945842,,DFi_2,(based on tag),,1034,"dispref (27, tekub.wav)",AP,307928,,,,,b,,,(based on tag)
172,AP,DisFirst_reg,,-0.5889281507656066,,DFi_2,(based on tag),,1698,"dispref (22, pidope.wav)",AP,309778,,,,,p,,,(based on tag)
173,AP,DisFirst_reg,,-0.6013229104028863,,DFi_2,(based on tag),,1663,"dispref (32, todupe.wav)",AP,311607,,,,,p,,,(based on tag)
174,AP,DisFirst_reg,,-1.0351966873706004,,DFi_2,(based on tag),,966,"dispref (17, goteb.wav)",AP,312737,,,,,b,,,(based on tag)
175,AP,DisFirst_reg,,-1.0660980810234542,,DFi_2,(based on tag),,938,"dispref (5, bogeb.wav)",AP,313847,,,,,b,,,(based on tag)
176,AP,DisFirst_reg,,-0.7763975155279503,,DFi_2,(based on tag),,1288,"dispref (3, bikub.wav)",AP,315287,,,,,b,,,(based on tag)
177,AP,DisFirst_reg,,-0.9560229445506692,,DFi_2,(based on tag),,1046,"dispref (19, gutob.wav)",AP,316486,,,,,b,,,(based on tag)
178,AP,DisFirst_reg,,-0.7836990595611285,,DFi_2,(based on tag),,1276,"dispref (20, gutope.wav)",AP,317916,,,,,p,,,(based on tag)
179,AP,DisFirst_reg,,-0.7855459544383346,,DFi_2,(based on tag),,1273,"dispref (18, gotepe.wav)",AP,319336,,,,,p,,,(based on tag)
180,AP,DisFirst_reg,,-0.7479431563201197,,DFi_2,(based on tag),,1337,"dispref (2, bidope.wav)",AP,320825,,,,,p,,,(based on tag)
181,AP,DisFirst_reg,,-0.8143322475570033,,DFi_2,(based on tag),,1228,"dispref (24, pigepe.wav)",AP,322205,,,,,p,,,(based on tag)
182,AP,DisFirst_reg,,-0.9514747859181732,,DFi_2,(based on tag),,1051,"dispref (31, todub.wav)",AP,323425,,,,,b,,,(based on tag)
183,AP,DisFirst_reg,,-1.0810810810810811,,DFi_2,(based on tag),,925,"dispref (15, dokub.wav)",AP,324515,,,,,b,,,(based on tag)
184,AP,DisFirst_reg,,-0.5714285714285714,,DFi_2,(based on tag),,1750,"dispref (23, pigeb.wav)",AP,326424,,,,,b,,,(based on tag)
185,AP,DisFirst_reg,,-0.7716049382716049,,DFi_2,(based on tag),,1296,"dispref (4, bikupe.wav)",AP,327884,,,,,p,,,(based on tag)
186,AP,DisFirst_reg,,-0.6939625260235948,,DFi_2,(based on tag),,1441,"dispref (14, dogipe.wav)",AP,329494,,,,,p,,,(based on tag)
187,AP,DisFirst_reg,,-0.3716090672612411,,DFi_2,(any response),,2691,Please take a b...,AP,330744,,,,,,,,(any response)
188,AP,DisFirst_reg,,-0.5070993914807302,,DFi_2,(based on tag),,1972,"Pref (25, gotebe.wav)",AP,332993,,,,,b,,,(based on tag)
189,AP,DisFirst_reg,,-0.8032128514056225,,DFi_2,(based on tag),,1245,"Pref (19, bogebe.wav)",AP,334403,,,,,b,,,(based on tag)
190,AP,DisFirst_reg,,-0.6688963210702341,,DFi_2,(based on tag),,1495,"Pref (32, todube.wav)",AP,336053,,,,,b,,,(based on tag)
191,AP,DisFirst_reg,,-0.5787037037037037,,DFi_2,(based on tag),,1728,"Pref (24, dokube.wav)",AP,337932,,,,,b,,,(based on tag)
192,AP,DisFirst_reg,,-1.1737089201877935,,DFi_2,(based on tag),,852,"Pref (8, dokup.wav)",AP,338932,,,,,p,,,(based on tag)
193,AP,DisFirst_reg,,-0.9380863039399624,,DFi_2,(based on tag),,1066,"Pref (15, todip.wav)",AP,340242,,,,,p,,,(based on tag)
194,AP,DisFirst_reg,,-0.8116883116883117,,DFi_2,(based on tag),,1232,"Pref (16, todup.wav)",AP,341652,,,,,p,,,(based on tag)
195,AP,DisFirst_reg,,-0.5546311702717692,,DFi_2,(based on tag),,1803,"Pref (9, gotep.wav)",AP,343642,,,,,p,,,(based on tag)
196,AP,DisFirst_reg,,-0.6207324643078833,,DFi_2,(based on tag),,1611,"Pref (30, tekube.wav)",AP,345441,,,,,b,,,(based on tag)
197,AP,DisFirst_reg,,-0.727802037845706,,DFi_2,(based on tag),,1374,"Pref (7, dogip.wav)",AP,346971,,,,,p,,,(based on tag)
198,AP,DisFirst_reg,,-0.6468305304010349,,DFi_2,(based on tag),,1546,"Pref (14, tekup.wav)",AP,348670,,,,,p,,,(based on tag)
199,AP,DisFirst_reg,,-0.9242144177449167,,DFi_2,(based on tag),,1082,"Pref (4, bugip.wav)",AP,349910,,,,,p,,,(based on tag)
200,AP,DisFirst_reg,,-0.794912559618442,,DFi_2,(based on tag),,1258,"Pref (31, todibe.wav)",AP,351320,,,,,b,,,(based on tag)
201,AP,DisFirst_reg,,-0.7692307692307693,,DFi_2,(based on tag),,1300,"Pref (26, gutobe.wav)",AP,352769,,,,,b,,,(based on tag)
202,AP,DisFirst_reg,,-0.5652911249293386,,DFi_2,(based on tag),,1769,"Pref (23, dogibe.wav)",AP,354689,,,,,b,,,(based on tag)
203,AP,DisFirst_reg,,-0.3602305475504322,,DFi_2,(based on tag),,2776,"Pref (29, potibe.wav)",AP,357629,,,,,b,,,(based on tag)
204,AP,DisFirst_reg,,-0.5186721991701245,,DFi_2,(based on tag),,1928,"Pref (5, degop.wav)",AP,359738,,,,,p,,,(based on tag)
205,AP,DisFirst_reg,,-0.6715916722632639,,DFi_2,(based on tag),,1489,"Pref (12, pigep.wav)",AP,361388,,,,,p,,,(based on tag)
206,AP,DisFirst_reg,,-0.6958942240779401,,DFi_2,(based on tag),,1437,"Pref (13, potip.wav)",AP,362988,,,,,p,,,(based on tag)
207,AP,DisFirst_reg,,-0.4662004662004662,,DFi_2,(based on tag),,2145,"Pref (20, bugibe.wav)",AP,365287,,,,,b,,,(based on tag)
208,AP,DisFirst_reg,,-0.5050505050505051,,DFi_2,(based on tag),,1980,"Pref (10, gutop.wav)",AP,367417,,,,,p,,,(based on tag)
209,AP,DisFirst_reg,,-0.585480093676815,,DFi_2,(based on tag),,1708,"Pref (6, dikep.wav)",AP,369347,,,,,p,,,(based on tag)
210,AP,DisFirst_reg,,-0.4053506282934738,,DFi_2,(based on tag),,2467,"Pref (11, pidop.wav)",AP,371966,,,,,p,,,(based on tag)
211,AP,DisFirst_reg,,-0.4842615012106537,,DFi_2,(based on tag),,2065,"Pref (22, dikebe.wav)",AP,374186,,,,,b,,,(based on tag)
212,AP,DisFirst_reg,,-0.3933910306845004,,DFi_2,(based on tag),,2542,"Pref (18, bikube.wav)",AP,376935,,,,,b,,,(based on tag)
213,AP,DisFirst_reg,,-0.6238303181534622,,DFi_2,(based on tag),,1603,"Pref (17, bidobe.wav)",AP,378705,,,,,b,,,(based on tag)
214,AP,DisFirst_reg,,-0.8673026886383348,,DFi_2,(based on tag),,1153,"Pref (2, bikup.wav)",AP,380005,,,,,p,,,(based on tag)
215,AP,DisFirst_reg,,-0.5083884087442806,,DFi_2,(based on tag),,1967,"Pref (28, pigebe.wav)",AP,382124,,,,,b,,,(based on tag)
216,AP,DisFirst_reg,,-0.5780346820809249,,DFi_2,(based on tag),,1730,"Pref (21, degobe.wav)",AP,384014,,,,,b,,,(based on tag)
217,AP,DisFirst_reg,,-0.66711140760507,,DFi_2,(based on tag),,1499,"Pref (3, bogep.wav)",AP,385714,,,,,p,,,(based on tag)
218,AP,DisFirst_reg,,-0.6377551020408163,,DFi_2,(based on tag),,1568,"Pref (1, bidop.wav)",AP,387443,,,,,p,,,(based on tag)
219,AP,DisFirst_reg,,-0.4528985507246377,,DFi_2,(based on tag),,2208,"Pref (27, pidobe.wav)",AP,389803,,,,,b,,,(based on tag)
220,AP,DisFirst_reg,,-0.4314063848144953,,DFi_2,(any response),,2318,Please take a b...,AP,389913,,,,,,,,(any response)
221,AP,DisFirst_reg,,-0.6557377049180327,,DFi_2,(based on tag),,1525,"Pref (7, dogip.wav)",AP,391653,,,,,p,,,(based on tag)
222,AP,DisFirst_reg,,-0.7633587786259542,,DFi_2,(based on tag),,1310,"Pref (9, gotep.wav)",AP,393112,,,,,p,,,(based on tag)
223,AP,DisFirst_reg,,-0.3523608174770965,,DFi_2,(based on tag),,2838,"Pref (21, degobe.wav)",AP,396102,,,,,b,,,(based on tag)
224,AP,DisFirst_reg,,-0.7616146230007617,,DFi_2,(based on tag),,1313,"Pref (15, todip.wav)",AP,397581,,,,,p,,,(based on tag)
225,AP,DisFirst_reg,,-0.7293946024799417,,DFi_2,(based on tag),,1371,"Pref (1, bidop.wav)",AP,399111,,,,,p,,,(based on tag)
226,AP,DisFirst_reg,,-0.4299226139294927,,DFi_2,(based on tag),,2326,"Pref (29, potibe.wav)",AP,401591,,,,,b,,,(based on tag)
227,AP,DisFirst_reg,,-0.78064012490242,,DFi_2,(based on tag),,1281,"Pref (26, gutobe.wav)",AP,403030,,,,,b,,,(based on tag)
228,AP,DisFirst_reg,,-0.7692307692307693,,DFi_2,(based on tag),,1300,"Pref (25, gotebe.wav)",AP,404480,,,,,b,,,(based on tag)
229,AP,DisFirst_reg,,-0.779423226812159,,DFi_2,(based on tag),,1283,"Pref (31, todibe.wav)",AP,405980,,,,,b,,,(based on tag)
230,AP,DisFirst_reg,,-0.3988831272437176,,DFi_2,(based on tag),,2507,"Pref (2, bikup.wav)",AP,408639,,,,,p,,,(based on tag)
231,AP,DisFirst_reg,,-0.9881422924901184,,DFi_2,(based on tag),,1012,"Pref (8, dokup.wav)",AP,409869,,,,,p,,,(based on tag)
232,AP,DisFirst_reg,,-0.6373486297004461,,DFi_2,(based on tag),,1569,"Pref (24, dokube.wav)",AP,411589,,,,,b,,,(based on tag)
233,AP,DisFirst_reg,,-0.8278145695364238,,DFi_2,(based on tag),,1208,"Pref (11, pidop.wav)",AP,412948,,,,,p,,,(based on tag)
234,AP,DisFirst_reg,,-0.5817335660267597,,DFi_2,(based on tag),,1719,"Pref (16, todup.wav)",AP,414818,,,,,p,,,(based on tag)
235,AP,DisFirst_reg,,-0.7886435331230284,,DFi_2,(based on tag),,1268,"Pref (10, gutop.wav)",AP,416248,,,,,p,,,(based on tag)
236,AP,DisFirst_reg,,-0.4295532646048109,,DFi_2,(based on tag),,2328,"Pref (23, dogibe.wav)",AP,418728,,,,,b,,,(based on tag)
237,AP,DisFirst_reg,,-0.4312203536006899,,DFi_2,(based on tag),,2319,"Pref (20, bugibe.wav)",AP,421207,,,,,b,,,(based on tag)
238,AP,DisFirst_reg,,-0.7189072609633357,,DFi_2,(based on tag),,1391,"Pref (27, pidobe.wav)",AP,422767,,,,,b,,,(based on tag)
239,AP,DisFirst_reg,,-0.6920415224913494,,DFi_2,(based on tag),,1445,"Pref (17, bidobe.wav)",AP,424386,,,,,b,,,(based on tag)
240,AP,DisFirst_reg,,-0.6631299734748011,,DFi_2,(based on tag),,1508,"Pref (14, tekup.wav)",AP,426056,,,,,p,,,(based on tag)
241,AP,DisFirst_reg,,-0.6035003017501509,,DFi_2,(based on tag),,1657,"Pref (30, tekube.wav)",AP,427876,,,,,b,,,(based on tag)
242,AP,DisFirst_reg,,-0.5871990604815033,,DFi_2,(based on tag),,1703,"Pref (19, bogebe.wav)",AP,429725,,,,,b,,,(based on tag)
243,AP,DisFirst_reg,,-0.6013229104028863,,DFi_2,(based on tag),,1663,"Pref (4, bugip.wav)",AP,431555,,,,,p,,,(based on tag)
244,AP,DisFirst_reg,,-0.8038585209003215,,DFi_2,(based on tag),,1244,"Pref (12, pigep.wav)",AP,432965,,,,,p,,,(based on tag)
245,AP,DisFirst_reg,,-0.8340283569641368,,DFi_2,(based on tag),,1199,"Pref (3, bogep.wav)",AP,434364,,,,,p,,,(based on tag)
246,AP,DisFirst_reg,,-0.3460207612456747,,DFi_2,(based on tag),,2890,"Pref (18, bikube.wav)",AP,437404,,,,,b,,,(based on tag)
247,AP,DisFirst_reg,,-0.7057163020465773,,DFi_2,(based on tag),,1417,"Pref (28, pigebe.wav)",AP,438984,,,,,b,,,(based on tag)
248,AP,DisFirst_reg,,-0.7739938080495357,,DFi_2,(based on tag),,1292,"Pref (22, dikebe.wav)",AP,440424,,,,,b,,,(based on tag)
249,AP,DisFirst_reg,,-0.4604051565377532,,DFi_2,(based on tag),,2172,"Pref (13, potip.wav)",AP,442753,,,,,p,,,(based on tag)
250,AP,DisFirst_reg,,-0.8517887563884157,,DFi_2,(based on tag),,1174,"Pref (5, degop.wav)",AP,444103,,,,,p,,,(based on tag)
251,AP,DisFirst_reg,,-0.3522367030644593,,DFi_2,(based on tag),,2839,"Pref (32, todube.wav)",AP,447092,,,,,b,,,(based on tag)
252,AP,DisFirst_reg,,-0.4789272030651341,,DFi_2,(based on tag),,2088,"Pref (6, dikep.wav)",AP,449362,,,,,p,,,(based on tag)
253,AP,DisFirst_reg,,-0.2552322613578356,,DFi_2,(any response),,3918,Please take a b...,AP,451192,,,,,,,,(any response)
254,AP,DisFirst_reg,,-0.4782400765184122,,DFi_2,(based on tag),,2091,"Pref (18, bikube.wav)",AP,453511,,,,,b,,,(based on tag)
255,AP,DisFirst_reg,,-0.7558578987150416,,DFi_2,(based on tag),,1323,"Pref (19, bogebe.wav)",AP,455001,,,,,b,,,(based on tag)
256,AP,DisFirst_reg,,-0.6188118811881188,,DFi_2,(based on tag),,1616,"Pref (32, todube.wav)",AP,456771,,,,,b,,,(based on tag)
257,AP,DisFirst_reg,,-0.7886435331230284,,DFi_2,(based on tag),,1268,"Pref (21, degobe.wav)",AP,458190,,,,,b,,,(based on tag)
258,AP,DisFirst_reg,,-0.6788866259334692,,DFi_2,(based on tag),,1473,"Pref (20, bugibe.wav)",AP,459820,,,,,b,,,(based on tag)
259,AP,DisFirst_reg,,-0.779423226812159,,DFi_2,(based on tag),,1283,"Pref (1, bidop.wav)",AP,461360,,,,,p,,,(based on tag)
260,AP,DisFirst_reg,,-0.78125,,DFi_2,(based on tag),,1280,"Pref (14, tekup.wav)",AP,462799,,,,,p,,,(based on tag)
261,AP,DisFirst_reg,,-0.9699321047526672,,DFi_2,(based on tag),,1031,"Pref (15, todip.wav)",AP,463989,,,,,p,,,(based on tag)
262,AP,DisFirst_reg,,-0.8802816901408451,,DFi_2,(based on tag),,1136,"Pref (8, dokup.wav)",AP,465289,,,,,p,,,(based on tag)
263,AP,DisFirst_reg,,-0.8904719501335708,,DFi_2,(based on tag),,1123,"Pref (13, potip.wav)",AP,466559,,,,,p,,,(based on tag)
264,AP,DisFirst_reg,,-0.6060606060606061,,DFi_2,(based on tag),,1650,"Pref (12, pigep.wav)",AP,468358,,,,,p,,,(based on tag)
265,AP,DisFirst_reg,,-0.925925925925926,,DFi_2,(based on tag),,1080,"Pref (16, todup.wav)",AP,469588,,,,,p,,,(based on tag)
266,AP,DisFirst_reg,,-0.8771929824561403,,DFi_2,(based on tag),,1140,"Pref (3, bogep.wav)",AP,470908,,,,,p,,,(based on tag)
267,AP,DisFirst_reg,,-0.723589001447178,,DFi_2,(based on tag),,1382,"Pref (27, pidobe.wav)",AP,472438,,,,,b,,,(based on tag)
268,AP,DisFirst_reg,,-0.7496251874062968,,DFi_2,(based on tag),,1334,"Pref (9, gotep.wav)",AP,473937,,,,,p,,,(based on tag)
269,AP,DisFirst_reg,,-0.9124087591240876,,DFi_2,(based on tag),,1096,"Pref (26, gutobe.wav)",AP,475177,,,,,b,,,(based on tag)
270,AP,DisFirst_reg,,-0.7304601899196493,,DFi_2,(based on tag),,1369,"Pref (17, bidobe.wav)",AP,476767,,,,,b,,,(based on tag)
271,AP,DisFirst_reg,,-0.7824726134585289,,DFi_2,(based on tag),,1278,"Pref (2, bikup.wav)",AP,478197,,,,,p,,,(based on tag)
272,AP,DisFirst_reg,,-0.5249343832020997,,DFi_2,(based on tag),,1905,"Pref (23, dogibe.wav)",AP,480266,,,,,b,,,(based on tag)
273,AP,DisFirst_reg,,-0.8090614886731392,,DFi_2,(based on tag),,1236,"Pref (22, dikebe.wav)",AP,481666,,,,,b,,,(based on tag)
274,AP,DisFirst_reg,,-0.5959475566150179,,DFi_2,(based on tag),,1678,"Pref (25, gotebe.wav)",AP,483496,,,,,b,,,(based on tag)
275,AP,DisFirst_reg,,-0.6086427267194157,,DFi_2,(based on tag),,1643,"Pref (7, dogip.wav)",AP,485285,,,,,p,,,(based on tag)
276,AP,DisFirst_reg,,-0.4719207173194903,,DFi_2,(based on tag),,2119,"Pref (24, dokube.wav)",AP,487625,,,,,b,,,(based on tag)
277,AP,DisFirst_reg,,-0.8904719501335708,,DFi_2,(based on tag),,1123,"Pref (4, bugip.wav)",AP,488904,,,,,p,,,(based on tag)
278,AP,DisFirst_reg,,-0.3669724770642202,,DFi_2,(based on tag),,2725,"Pref (29, potibe.wav)",AP,491784,,,,,b,,,(based on tag)
279,AP,DisFirst_reg,,-0.7401924500370096,,DFi_2,(based on tag),,1351,"Pref (11, pidop.wav)",AP,493334,,,,,p,,,(based on tag)
280,AP,DisFirst_reg,,-0.7342143906020558,,DFi_2,(based on tag),,1362,"Pref (30, tekube.wav)",AP,494843,,,,,b,,,(based on tag)
281,AP,DisFirst_reg,,-0.8841732979664014,,DFi_2,(based on tag),,1131,"Pref (6, dikep.wav)",AP,496123,,,,,p,,,(based on tag)
282,AP,DisFirst_reg,,-0.7621951219512195,,DFi_2,(based on tag),,1312,"Pref (10, gutop.wav)",AP,497603,,,,,p,,,(based on tag)
283,AP,DisFirst_reg,,-0.6680026720106881,,DFi_2,(based on tag),,1497,"Pref (5, degop.wav)",AP,499273,,,,,p,,,(based on tag)
284,AP,DisFirst_reg,,-0.6788866259334692,,DFi_2,(based on tag),,1473,"Pref (31, todibe.wav)",AP,500902,,,,,b,,,(based on tag)
285,AP,DisFirst_reg,,-0.6013229104028863,,DFi_2,(based on tag),,1663,"Pref (28, pigebe.wav)",AP,502722,,,,,b,,,(based on tag)
286,AP,DisFirst_reg,,-0.2854695974878675,,DFi_2,(any response),,3503,Please take a b...,AP,504562,,,,,,,,(any response)
287,AP,DisFirst_reg,,-0.6215040397762586,,DFi_2,(based on tag),,1609,"Pref (30, tekube.wav)",AP,506411,,,,,b,,,(based on tag)
288,AP,DisFirst_reg,,-0.8598452278589854,,DFi_2,(based on tag),,1163,"Pref (12, pigep.wav)",AP,507781,,,,,p,,,(based on tag)
289,AP,DisFirst_reg,,-0.8103727714748784,,DFi_2,(based on tag),,1234,"Pref (19, bogebe.wav)",AP,509221,,,,,b,,,(based on tag)
290,AP,DisFirst_reg,,-0.8539709649871904,,DFi_2,(based on tag),,1171,"Pref (3, bogep.wav)",AP,510541,,,,,p,,,(based on tag)
291,AP,DisFirst_reg,,-0.8665511265164645,,DFi_2,(based on tag),,1154,"Pref (7, dogip.wav)",AP,511860,,,,,p,,,(based on tag)
292,AP,DisFirst_reg,,-0.4672897196261682,,DFi_2,(based on tag),,2140,"Pref (25, gotebe.wav)",AP,514170,,,,,b,,,(based on tag)
293,AP,DisFirst_reg,,-0.9033423667570007,,DFi_2,(based on tag),,1107,"Pref (1, bidop.wav)",AP,515440,,,,,p,,,(based on tag)
294,AP,DisFirst_reg,,-0.7385524372230429,,DFi_2,(based on tag),,1354,"Pref (9, gotep.wav)",AP,516990,,,,,p,,,(based on tag)
295,AP,DisFirst_reg,,-0.8298755186721992,,DFi_2,(based on tag),,1205,"Pref (28, pigebe.wav)",AP,518359,,,,,b,,,(based on tag)
296,AP,DisFirst_reg,,-0.5128205128205128,,DFi_2,(based on tag),,1950,"Pref (17, bidobe.wav)",AP,520459,,,,,b,,,(based on tag)
297,AP,DisFirst_reg,,-0.6711409395973155,,DFi_2,(based on tag),,1490,"Pref (11, pidop.wav)",AP,522148,,,,,p,,,(based on tag)
298,AP,DisFirst_reg,,-0.778816199376947,,DFi_2,(based on tag),,1284,"Pref (10, gutop.wav)",AP,523598,,,,,p,,,(based on tag)
299,AP,DisFirst_reg,,-0.6002400960384153,,DFi_2,(based on tag),,1666,"Pref (20, bugibe.wav)",AP,525428,,,,,b,,,(based on tag)
300,AP,DisFirst_reg,,-0.6684491978609626,,DFi_2,(based on tag),,1496,"Pref (31, todibe.wav)",AP,527078,,,,,b,,,(based on tag)
301,AP,DisFirst_reg,,-0.7874015748031497,,DFi_2,(based on tag),,1270,"Pref (8, dokup.wav)",AP,528507,,,,,p,,,(based on tag)
302,AP,DisFirst_reg,,-0.6349206349206349,,DFi_2,(based on tag),,1575,"Pref (24, dokube.wav)",AP,530237,,,,,b,,,(based on tag)
303,AP,DisFirst_reg,,-0.6153846153846154,,DFi_2,(based on tag),,1625,"Pref (4, bugip.wav)",AP,532046,,,,,p,,,(based on tag)
304,AP,DisFirst_reg,,-0.6226650062266501,,DFi_2,(based on tag),,1606,"Pref (2, bikup.wav)",AP,533816,,,,,p,,,(based on tag)
305,AP,DisFirst_reg,,-0.8748906386701663,,DFi_2,(based on tag),,1143,"Pref (6, dikep.wav)",AP,535126,,,,,p,,,(based on tag)
306,AP,DisFirst_reg,,-0.7380073800738007,,DFi_2,(based on tag),,1355,"Pref (26, gutobe.wav)",AP,536626,,,,,b,,,(based on tag)
307,AP,DisFirst_reg,,-0.6891798759476223,,DFi_2,(based on tag),,1451,"Pref (22, dikebe.wav)",AP,538226,,,,,b,,,(based on tag)
308,AP,DisFirst_reg,,-0.9746588693957114,,DFi_2,(based on tag),,1026,"Pref (15, todip.wav)",AP,539405,,,,,p,,,(based on tag)
309,AP,DisFirst_reg,,-0.6349206349206349,,DFi_2,(based on tag),,1575,"Pref (32, todube.wav)",AP,541145,,,,,b,,,(based on tag)
310,AP,DisFirst_reg,,-0.724112961622013,,DFi_2,(based on tag),,1381,"Pref (29, potibe.wav)",AP,542695,,,,,b,,,(based on tag)
311,AP,DisFirst_reg,,-0.4295532646048109,,DFi_2,(based on tag),,2328,"Pref (16, todup.wav)",AP,545174,,,,,p,,,(based on tag)
312,AP,DisFirst_reg,,-0.5807200929152149,,DFi_2,(based on tag),,1722,"Pref (21, degobe.wav)",AP,547084,,,,,b,,,(based on tag)
313,AP,DisFirst_reg,,-0.5803830528148578,,DFi_2,(based on tag),,1723,"Pref (18, bikube.wav)",AP,548954,,,,,b,,,(based on tag)
314,AP,DisFirst_reg,,-0.5711022272986864,,DFi_2,(based on tag),,1751,"Pref (23, dogibe.wav)",AP,550863,,,,,b,,,(based on tag)
315,AP,DisFirst_reg,,-0.9746588693957114,,DFi_2,(based on tag),,1026,"Pref (13, potip.wav)",AP,552053,,,,,p,,,(based on tag)
316,AP,DisFirst_reg,,-0.5305039787798409,,DFi_2,(based on tag),,1885,"Pref (27, pidobe.wav)",AP,554093,,,,,b,,,(based on tag)
317,AP,DisFirst_reg,,-0.5837711617046117,,DFi_2,(based on tag),,1713,"Pref (5, degop.wav)",AP,555972,,,,,p,,,(based on tag)
318,AP,DisFirst_reg,,-0.8984725965858041,,DFi_2,(based on tag),,1113,"Pref (14, tekup.wav)",AP,557242,,,,,p,,,(based on tag)
319,AP,DisFirst_reg,,-0.2830455703368242,,DFi_2,(any response),,3533,Please take a b...,AP,559662,,,,,,,,(any response)
320,AP,DisFirst_reg,,-0.4458314757021845,,DFi_2,(based on tag),,2243,"Pref (4, bugip.wav)",AP,562171,,,,,p,,,(based on tag)
321,AP,DisFirst_reg,,-0.6553079947575361,,DFi_2,(based on tag),,1526,"Pref (19, bogebe.wav)",AP,563861,,,,,b,,,(based on tag)
322,AP,DisFirst_reg,,-0.851063829787234,,DFi_2,(based on tag),,1175,"Pref (5, degop.wav)",AP,565230,,,,,p,,,(based on tag)
323,AP,DisFirst_reg,,-0.7855459544383346,,DFi_2,(based on tag),,1273,"Pref (11, pidop.wav)",AP,566650,,,,,p,,,(based on tag)
324,AP,DisFirst_reg,,-0.6779661016949152,,DFi_2,(based on tag),,1475,"Pref (32, todube.wav)",AP,568290,,,,,b,,,(based on tag)
325,AP,DisFirst_reg,,-0.7288629737609329,,DFi_2,(based on tag),,1372,"Pref (15, todip.wav)",AP,569820,,,,,p,,,(based on tag)
326,AP,DisFirst_reg,,-0.5254860746190226,,DFi_2,(based on tag),,1903,"Pref (30, tekube.wav)",AP,571869,,,,,b,,,(based on tag)
327,AP,DisFirst_reg,,-0.6218905472636815,,DFi_2,(based on tag),,1608,"Pref (26, gutobe.wav)",AP,573639,,,,,b,,,(based on tag)
328,AP,DisFirst_reg,,-0.6644518272425249,,DFi_2,(based on tag),,1505,"Pref (13, potip.wav)",AP,575299,,,,,p,,,(based on tag)
329,AP,DisFirst_reg,,-0.5834305717619603,,DFi_2,(based on tag),,1714,"Pref (31, todibe.wav)",AP,577168,,,,,b,,,(based on tag)
330,AP,DisFirst_reg,,-0.6793478260869565,,DFi_2,(based on tag),,1472,"Pref (10, gutop.wav)",AP,578788,,,,,p,,,(based on tag)
331,AP,DisFirst_reg,,-0.5602240896358543,,DFi_2,(based on tag),,1785,"Pref (18, bikube.wav)",AP,580738,,,,,b,,,(based on tag)
332,AP,DisFirst_reg,,-0.6958942240779401,,DFi_2,(based on tag),,1437,"Pref (21, degobe.wav)",AP,582337,,,,,b,,,(based on tag)
333,AP,DisFirst_reg,,-0.5633802816901409,,DFi_2,(based on tag),,1775,"Pref (7, dogip.wav)",AP,584327,,,,,p,,,(based on tag)
334,AP,DisFirst_reg,,-0.7102272727272727,,DFi_2,(based on tag),,1408,"Pref (23, dogibe.wav)",AP,585907,,,,,b,,,(based on tag)
335,AP,DisFirst_reg,,-1.0351966873706004,,DFi_2,(based on tag),,966,"Pref (9, gotep.wav)",AP,587057,,,,,p,,,(based on tag)
336,AP,DisFirst_reg,,-0.8340283569641368,,DFi_2,(based on tag),,1199,"Pref (25, gotebe.wav)",AP,588406,,,,,b,,,(based on tag)
337,AP,DisFirst_reg,,-0.7352941176470589,,DFi_2,(based on tag),,1360,"Pref (29, potibe.wav)",AP,589916,,,,,b,,,(based on tag)
338,AP,DisFirst_reg,,-0.4106776180698152,,DFi_2,(based on tag),,2435,"Pref (3, bogep.wav)",AP,592526,,,,,p,,,(based on tag)
339,AP,DisFirst_reg,,-0.6684491978609626,,DFi_2,(based on tag),,1496,"Pref (20, bugibe.wav)",AP,594215,,,,,b,,,(based on tag)
340,AP,DisFirst_reg,,-0.5263157894736842,,DFi_2,(based on tag),,1900,"Pref (17, bidobe.wav)",AP,596285,,,,,b,,,(based on tag)
341,AP,DisFirst_reg,,-0.7855459544383346,,DFi_2,(based on tag),,1273,"Pref (14, tekup.wav)",AP,597755,,,,,p,,,(based on tag)
342,AP,DisFirst_reg,,-0.5524861878453039,,DFi_2,(based on tag),,1810,"Pref (27, pidobe.wav)",AP,599754,,,,,b,,,(based on tag)
343,AP,DisFirst_reg,,-0.4302925989672977,,DFi_2,(based on tag),,2324,"Pref (8, dokup.wav)",AP,602244,,,,,p,,,(based on tag)
344,AP,DisFirst_reg,,-0.5341880341880342,,DFi_2,(based on tag),,1872,"Pref (28, pigebe.wav)",AP,604283,,,,,b,,,(based on tag)
345,AP,DisFirst_reg,,-0.8389261744966443,,DFi_2,(based on tag),,1192,"Pref (6, dikep.wav)",AP,605643,,,,,p,,,(based on tag)
346,AP,DisFirst_reg,,-0.4909180166912125,,DFi_2,(based on tag),,2037,"Pref (24, dokube.wav)",AP,607893,,,,,b,,,(based on tag)
347,AP,DisFirst_reg,,-0.6609385327164574,,DFi_2,(based on tag),,1513,"Pref (2, bikup.wav)",AP,609612,,,,,p,,,(based on tag)
348,AP,DisFirst_reg,,-0.8216926869350862,,DFi_2,(based on tag),,1217,"Pref (16, todup.wav)",AP,611062,,,,,p,,,(based on tag)
349,AP,DisFirst_reg,,-0.6693440428380187,,DFi_2,(based on tag),,1494,"Pref (12, pigep.wav)",AP,612722,,,,,p,,,(based on tag)
350,AP,DisFirst_reg,,-0.7067137809187279,,DFi_2,(based on tag),,1415,"Pref (22, dikebe.wav)",AP,614301,,,,,b,,,(based on tag)
351,AP,DisFirst_reg,,-0.6414368184733804,,DFi_2,(based on tag),,1559,"Pref (1, bidop.wav)",AP,616011,,,,,p,,,(based on tag)
352,AP,DisFirst_reg,,-0.3664345914254305,,DFi_2,(any response),,2729,Please take a b...,AP,617181,,,,,,,,(any response)
353,AP,DisFirst_reg,,-0.1980982567353407,,DFi_2,(any response),,5048,Debreifing,AP,622380,,,,,,,,(any response)
1,AP,DDisFirst_reg,,-0.0354433968951584,,DFi_2,(any response),,28214,Practice_Instructions,AP,28599,,,,,,,,(any response)
2,AP,DisFirst_reg,,-111.11111111111111,,DFi_2,(based on tag),,9,"Practice (1, bumblebee.wav)",AP,29129,,,,,b,,,(based on tag)
3,AP,DisFirst_reg,,-0.3377237419790611,,DFi_2,(based on tag),,2961,"Practice (2, canopy.wav)",AP,32708,,,,,p,,,(based on tag)
4,AP,DisFirst_reg,,-0.9372071227741332,,DFi_2,(based on tag),,1067,"Practice (3, cob.wav)",AP,34398,,,,,b,,,(based on tag)
5,AP,DisFirst_reg,,-0.4616805170821791,,DFi_2,(based on tag),,2166,"Practice (4, copy.wav)",AP,37208,,,,,p,,,(based on tag)
6,AP,DisFirst_reg,,-0.6535947712418301,,DFi_2,(based on tag),,1530,"Practice (5, crab.wav)",AP,39377,,,,,b,,,(based on tag)
7,AP,DisFirst_reg,,-1.0224948875255624,,DFi_2,(based on tag),,978,"Practice (6, crimp.wav)",AP,41027,,,,,p,,,(based on tag)
8,AP,DisFirst_reg,,-1.0482180293501049,,DFi_2,(based on tag),,954,"Practice (7, flop.wav)",AP,42607,,,,,p,,,(based on tag)
9,AP,DisFirst_reg,,-0.9487666034155596,,DFi_2,(based on tag),,1054,"Practice (8, grab.wav)",AP,44276,,,,,b,,,(based on tag)
10,AP,DisFirst_reg,,-1.0638297872340423,,DFi_2,(based on tag),,940,"Practice (9, grub.wav)",AP,45866,,,,,b,,,(based on tag)
11,AP,DisFirst_reg,,-1.0482180293501049,,DFi_2,(based on tag),,954,"Practice (10, hippie.wav)",AP,47456,,,,,p,,,(based on tag)
12,AP,DisFirst_reg,,-1.1111111111111112,,DFi_2,(based on tag),,900,"Practice (11, lobe.wav)",AP,49005,,,,,b,,,(based on tag)
13,AP,DisFirst_reg,,-0.9090909090909092,,DFi_2,(based on tag),,1100,"Practice (12, maybe.wav)",AP,50715,,,,,b,,,(based on tag)
14,AP,DisFirst_reg,,-0.8403361344537815,,DFi_2,(based on tag),,1190,"Practice (13, placebo.wav)",AP,52514,,,,,b,,,(based on tag)
15,AP,DisFirst_reg,,-0.8237232289950577,,DFi_2,(based on tag),,1214,"Practice (14, pope.wav)",AP,54334,,,,,p,,,(based on tag)
16,AP,DisFirst_reg,,-0.8643042350907519,,DFi_2,(based on tag),,1157,"Practice (15, ripe.wav)",AP,56134,,,,,p,,,(based on tag)
17,AP,DisFirst_reg,,-0.929368029739777,,DFi_2,(based on tag),,1076,"Practice (16, scuba.wav)",AP,57824,,,,,b,,,(based on tag)
18,AP,DisFirst_reg,,-0.9861932938856016,,DFi_2,(based on tag),,1014,"Practice (17, shape.wav)",AP,59454,,,,,p,,,(based on tag)
19,AP,DisFirst_reg,,-0.7547169811320755,,DFi_2,(based on tag),,1325,"Practice (18, toupee.wav)",AP,61393,,,,,p,,,(based on tag)
20,AP,DisFirst_reg,,-0.8532423208191127,,DFi_2,(based on tag),,1172,"Practice (19, typo.wav)",AP,63183,,,,,p,,,(based on tag)
21,AP,DisFirst_reg,,-0.942507068803016,,DFi_2,(based on tag),,1061,"Practice (20, wallaby.wav)",AP,64882,,,,,b,,,(based on tag)
22,AP,DisFirst_reg,,-0.111694404110354,,DFi_2,(any response),,8953,Instructions,AP,74401,,,,,,,,(any response)
23,AP,DisFirst_reg,,-0.4777830864787386,,DFi_2,(based on tag),,2093,"dispref (15, dokub.wav)",AP,76660,,,,,b,,,(based on tag)
24,AP,DisFirst_reg,,-0.5910165484633569,,DFi_2,(based on tag),,1692,"dispref (2, bidope.wav)",AP,78540,,,,,p,,,(based on tag)
25,AP,DisFirst_reg,,-0.6127450980392157,,DFi_2,(based on tag),,1632,"dispref (25, potib.wav)",AP,80319,,,,,b,,,(based on tag)
26,AP,DisFirst_reg,,-0.6447453255963894,,DFi_2,(based on tag),,1551,"dispref (8, bugipe.wav)",AP,82029,,,,,p,,,(based on tag)
27,AP,DisFirst_reg,,-0.7369196757553427,,DFi_2,(based on tag),,1357,"dispref (21, pidob.wav)",AP,83549,,,,,b,,,(based on tag)
28,AP,DisFirst_reg,,-0.723589001447178,,DFi_2,(based on tag),,1382,"dispref (30, todipe.wav)",AP,85089,,,,,p,,,(based on tag)
29,AP,DisFirst_reg,,-0.6150061500615006,,DFi_2,(based on tag),,1626,"dispref (4, bikupe.wav)",AP,86888,,,,,p,,,(based on tag)
30,AP,DisFirst_reg,,-0.6891798759476223,,DFi_2,(based on tag),,1451,"dispref (10, degope.wav)",AP,88528,,,,,p,,,(based on tag)
31,AP,DisFirst_reg,,-0.5399568034557235,,DFi_2,(based on tag),,1852,"dispref (29, todib.wav)",AP,90548,,,,,b,,,(based on tag)
32,AP,DisFirst_reg,,-0.6108735491753207,,DFi_2,(based on tag),,1637,"dispref (18, gotepe.wav)",AP,92387,,,,,p,,,(based on tag)
33,AP,DisFirst_reg,,-0.8532423208191127,,DFi_2,(based on tag),,1172,"dispref (1, bidob.wav)",AP,93717,,,,,b,,,(based on tag)
34,AP,DisFirst_reg,,-0.6729475100942126,,DFi_2,(based on tag),,1486,"dispref (12, dikepe.wav)",AP,95357,,,,,p,,,(based on tag)
35,AP,DisFirst_reg,,-0.8116883116883117,,DFi_2,(based on tag),,1232,"dispref (23, pigeb.wav)",AP,96737,,,,,b,,,(based on tag)
36,AP,DisFirst_reg,,-0.7468259895444361,,DFi_2,(based on tag),,1339,"dispref (24, pigepe.wav)",AP,98236,,,,,p,,,(based on tag)
37,AP,DisFirst_reg,,-0.7267441860465116,,DFi_2,(based on tag),,1376,"dispref (28, tekupe.wav)",AP,99766,,,,,p,,,(based on tag)
38,AP,DisFirst_reg,,-0.987166831194472,,DFi_2,(based on tag),,1013,"dispref (5, bogeb.wav)",AP,100946,,,,,b,,,(based on tag)
39,AP,DisFirst_reg,,-0.8748906386701663,,DFi_2,(based on tag),,1143,"dispref (7, bugib.wav)",AP,102245,,,,,b,,,(based on tag)
40,AP,DisFirst_reg,,-0.7898894154818326,,DFi_2,(based on tag),,1266,"dispref (26, potipe.wav)",AP,103665,,,,,p,,,(based on tag)
41,AP,DisFirst_reg,,-0.8873114463176575,,DFi_2,(based on tag),,1127,"dispref (9, degob.wav)",AP,104955,,,,,b,,,(based on tag)
42,AP,DisFirst_reg,,-0.800640512409928,,DFi_2,(based on tag),,1249,"dispref (14, dogipe.wav)",AP,106365,,,,,p,,,(based on tag)
43,AP,DisFirst_reg,,-0.7911392405063291,,DFi_2,(based on tag),,1264,"dispref (11, dikeb.wav)",AP,107814,,,,,b,,,(based on tag)
44,AP,DisFirst_reg,,-0.9433962264150944,,DFi_2,(based on tag),,1060,"dispref (27, tekub.wav)",AP,109024,,,,,b,,,(based on tag)
45,AP,DisFirst_reg,,-0.9970089730807578,,DFi_2,(based on tag),,1003,"dispref (31, todub.wav)",AP,110194,,,,,b,,,(based on tag)
46,AP,DisFirst_reg,,-0.6609385327164574,,DFi_2,(based on tag),,1513,"dispref (20, gutope.wav)",AP,111854,,,,,p,,,(based on tag)
47,AP,DisFirst_reg,,-0.3835826620636747,,DFi_2,(based on tag),,2607,"dispref (13, dogib.wav)",AP,114623,,,,,b,,,(based on tag)
48,AP,DisFirst_reg,,-0.5688282138794084,,DFi_2,(based on tag),,1758,"dispref (22, pidope.wav)",AP,116573,,,,,p,,,(based on tag)
49,AP,DisFirst_reg,,-0.6325110689437066,,DFi_2,(based on tag),,1581,"dispref (32, todupe.wav)",AP,118302,,,,,p,,,(based on tag)
50,AP,DisFirst_reg,,-0.7886435331230284,,DFi_2,(based on tag),,1268,"dispref (17, goteb.wav)",AP,119772,,,,,b,,,(based on tag)
51,AP,DisFirst_reg,,-0.7147962830593281,,DFi_2,(based on tag),,1399,"dispref (3, bikub.wav)",AP,121342,,,,,b,,,(based on tag)
52,AP,DisFirst_reg,,-0.8787346221441125,,DFi_2,(based on tag),,1138,"dispref (19, gutob.wav)",AP,122632,,,,,b,,,(based on tag)
53,AP,DisFirst_reg,,-0.7704160246533128,,DFi_2,(based on tag),,1298,"dispref (6, bogepe.wav)",AP,124081,,,,,p,,,(based on tag)
54,AP,DisFirst_reg,,-0.5361930294906166,,DFi_2,(based on tag),,1865,"dispref (16, dokupe.wav)",AP,126101,,,,,p,,,(based on tag)
55,AP,DisFirst_reg,,-0.1627604166666666,,DFi_2,(any response),,6144,Please take a b...,AP,130380,,,,,,,,(any response)
56,AP,DisFirst_reg,,-0.7830853563038371,,DFi_2,(based on tag),,1277,"dispref (24, pigepe.wav)",AP,131930,,,,,p,,,(based on tag)
57,AP,DisFirst_reg,,-0.7374631268436578,,DFi_2,(based on tag),,1356,"dispref (4, bikupe.wav)",AP,133440,,,,,p,,,(based on tag)
58,AP,DisFirst_reg,,-0.7326007326007326,,DFi_2,(based on tag),,1365,"dispref (10, degope.wav)",AP,134979,,,,,p,,,(based on tag)
59,AP,DisFirst_reg,,-0.7558578987150416,,DFi_2,(based on tag),,1323,"dispref (26, potipe.wav)",AP,136509,,,,,p,,,(based on tag)
60,AP,DisFirst_reg,,-0.8984725965858041,,DFi_2,(based on tag),,1113,"dispref (23, pigeb.wav)",AP,137799,,,,,b,,,(based on tag)
61,AP,DisFirst_reg,,-0.823045267489712,,DFi_2,(based on tag),,1215,"dispref (14, dogipe.wav)",AP,139169,,,,,p,,,(based on tag)
62,AP,DisFirst_reg,,-0.7304601899196493,,DFi_2,(based on tag),,1369,"dispref (32, todupe.wav)",AP,140709,,,,,p,,,(based on tag)
63,AP,DisFirst_reg,,-0.7457121551081283,,DFi_2,(based on tag),,1341,"dispref (22, pidope.wav)",AP,142208,,,,,p,,,(based on tag)
64,AP,DisFirst_reg,,-1.002004008016032,,DFi_2,(based on tag),,998,"dispref (27, tekub.wav)",AP,143378,,,,,b,,,(based on tag)
65,AP,DisFirst_reg,,-0.6605019815059445,,DFi_2,(based on tag),,1514,"dispref (13, dogib.wav)",AP,145108,,,,,b,,,(based on tag)
66,AP,DisFirst_reg,,-0.8347245409015025,,DFi_2,(based on tag),,1198,"dispref (30, todipe.wav)",AP,146497,,,,,p,,,(based on tag)
67,AP,DisFirst_reg,,-0.7209805335255948,,DFi_2,(based on tag),,1387,"dispref (28, tekupe.wav)",AP,148107,,,,,p,,,(based on tag)
68,AP,DisFirst_reg,,-1.050420168067227,,DFi_2,(based on tag),,952,"dispref (1, bidob.wav)",AP,149207,,,,,b,,,(based on tag)
69,AP,DisFirst_reg,,-0.7369196757553427,,DFi_2,(based on tag),,1357,"dispref (20, gutope.wav)",AP,150717,,,,,p,,,(based on tag)
70,AP,DisFirst_reg,,-0.9699321047526672,,DFi_2,(based on tag),,1031,"dispref (5, bogeb.wav)",AP,151947,,,,,b,,,(based on tag)
71,AP,DisFirst_reg,,-0.973709834469328,,DFi_2,(based on tag),,1027,"dispref (31, todub.wav)",AP,153126,,,,,b,,,(based on tag)
72,AP,DisFirst_reg,,-0.9891196834817012,,DFi_2,(based on tag),,1011,"dispref (15, dokub.wav)",AP,154286,,,,,b,,,(based on tag)
73,AP,DisFirst_reg,,-0.76103500761035,,DFi_2,(based on tag),,1314,"dispref (12, dikepe.wav)",AP,155766,,,,,p,,,(based on tag)
74,AP,DisFirst_reg,,-0.7251631617113851,,DFi_2,(based on tag),,1379,"dispref (2, bidope.wav)",AP,157296,,,,,p,,,(based on tag)
75,AP,DisFirst_reg,,-0.7680491551459293,,DFi_2,(based on tag),,1302,"dispref (16, dokupe.wav)",AP,158765,,,,,p,,,(based on tag)
76,AP,DisFirst_reg,,-0.6317119393556538,,DFi_2,(based on tag),,1583,"dispref (6, bogepe.wav)",AP,160505,,,,,p,,,(based on tag)
77,AP,DisFirst_reg,,-1.0319917440660475,,DFi_2,(based on tag),,969,"dispref (19, gutob.wav)",AP,161634,,,,,b,,,(based on tag)
78,AP,DisFirst_reg,,-1.0,,DFi_2,(based on tag),,1000,"dispref (11, dikeb.wav)",AP,162784,,,,,b,,,(based on tag)
79,AP,DisFirst_reg,,-0.5668934240362812,,DFi_2,(based on tag),,1764,"dispref (25, potib.wav)",AP,164714,,,,,b,,,(based on tag)
80,AP,DisFirst_reg,,-0.7479431563201197,,DFi_2,(based on tag),,1337,"dispref (3, bikub.wav)",AP,166214,,,,,b,,,(based on tag)
81,AP,DisFirst_reg,,-0.7974481658692185,,DFi_2,(based on tag),,1254,"dispref (8, bugipe.wav)",AP,167613,,,,,p,,,(based on tag)
82,AP,DisFirst_reg,,-0.5431830526887561,,DFi_2,(based on tag),,1841,"dispref (7, bugib.wav)",AP,169623,,,,,b,,,(based on tag)
83,AP,DisFirst_reg,,-1.0030090270812435,,DFi_2,(based on tag),,997,"dispref (21, pidob.wav)",AP,170783,,,,,b,,,(based on tag)
84,AP,DisFirst_reg,,-0.4342162396873643,,DFi_2,(based on tag),,2303,"dispref (17, goteb.wav)",AP,173243,,,,,b,,,(based on tag)
85,AP,DisFirst_reg,,-0.7127583749109052,,DFi_2,(based on tag),,1403,"dispref (18, gotepe.wav)",AP,174812,,,,,p,,,(based on tag)
86,AP,DisFirst_reg,,-0.683526999316473,,DFi_2,(based on tag),,1463,"dispref (9, degob.wav)",AP,176432,,,,,b,,,(based on tag)
87,AP,DisFirst_reg,,-0.6802721088435374,,DFi_2,(based on tag),,1470,"dispref (29, todib.wav)",AP,178062,,,,,b,,,(based on tag)
88,AP,DisFirst_reg,,-0.2519526329050138,,DFi_2,(any response),,3969,Please take a b...,AP,180561,,,,,,,,(any response)
89,AP,DisFirst_reg,,-0.8071025020177562,,DFi_2,(based on tag),,1239,"dispref (17, goteb.wav)",AP,182061,,,,,b,,,(based on tag)
90,AP,DisFirst_reg,,-0.922509225092251,,DFi_2,(based on tag),,1084,"dispref (25, potib.wav)",AP,183300,,,,,b,,,(based on tag)
91,AP,DisFirst_reg,,-0.5672149744753261,,DFi_2,(based on tag),,1763,"dispref (11, dikeb.wav)",AP,185230,,,,,b,,,(based on tag)
92,AP,DisFirst_reg,,-0.7898894154818326,,DFi_2,(based on tag),,1266,"dispref (23, pigeb.wav)",AP,186650,,,,,b,,,(based on tag)
93,AP,DisFirst_reg,,-0.8312551953449709,,DFi_2,(based on tag),,1203,"dispref (24, pigepe.wav)",AP,188010,,,,,p,,,(based on tag)
94,AP,DisFirst_reg,,-0.9615384615384616,,DFi_2,(based on tag),,1040,"dispref (9, degob.wav)",AP,189240,,,,,b,,,(based on tag)
95,AP,DisFirst_reg,,-0.9157509157509156,,DFi_2,(based on tag),,1092,"dispref (19, gutob.wav)",AP,190489,,,,,b,,,(based on tag)
96,AP,DisFirst_reg,,-0.5605381165919282,,DFi_2,(based on tag),,1784,"dispref (12, dikepe.wav)",AP,192429,,,,,p,,,(based on tag)
97,AP,DisFirst_reg,,-0.5747126436781609,,DFi_2,(based on tag),,1740,"dispref (28, tekupe.wav)",AP,194329,,,,,p,,,(based on tag)
98,AP,DisFirst_reg,,-0.8613264427217916,,DFi_2,(based on tag),,1161,"dispref (27, tekub.wav)",AP,195638,,,,,b,,,(based on tag)
99,AP,DisFirst_reg,,-0.946969696969697,,DFi_2,(based on tag),,1056,"dispref (5, bogeb.wav)",AP,196858,,,,,b,,,(based on tag)
100,AP,DisFirst_reg,,-0.7993605115907274,,DFi_2,(based on tag),,1251,"dispref (6, bogepe.wav)",AP,198308,,,,,p,,,(based on tag)
101,AP,DisFirst_reg,,-0.7639419404125286,,DFi_2,(based on tag),,1309,"dispref (16, dokupe.wav)",AP,199778,,,,,p,,,(based on tag)
102,AP,DisFirst_reg,,-1.1376564277588168,,DFi_2,(based on tag),,879,"dispref (7, bugib.wav)",AP,200807,,,,,b,,,(based on tag)
103,AP,DisFirst_reg,,-0.9587727708533078,,DFi_2,(based on tag),,1043,"dispref (26, potipe.wav)",AP,202037,,,,,p,,,(based on tag)
104,AP,DisFirst_reg,,-0.6609385327164574,,DFi_2,(based on tag),,1513,"dispref (29, todib.wav)",AP,203917,,,,,b,,,(based on tag)
105,AP,DisFirst_reg,,-0.5022601707684581,,DFi_2,(based on tag),,1991,"dispref (21, pidob.wav)",AP,206057,,,,,b,,,(based on tag)
106,AP,DisFirst_reg,,-0.6738544474393531,,DFi_2,(based on tag),,1484,"dispref (30, todipe.wav)",AP,207696,,,,,p,,,(based on tag)
107,AP,DisFirst_reg,,-0.8410428931875525,,DFi_2,(based on tag),,1189,"dispref (32, todupe.wav)",AP,209036,,,,,p,,,(based on tag)
108,AP,DisFirst_reg,,-0.7530120481927711,,DFi_2,(based on tag),,1328,"dispref (13, dogib.wav)",AP,210596,,,,,b,,,(based on tag)
109,AP,DisFirst_reg,,-0.6578947368421053,,DFi_2,(based on tag),,1520,"dispref (20, gutope.wav)",AP,212265,,,,,p,,,(based on tag)
110,AP,DisFirst_reg,,-0.6729475100942126,,DFi_2,(based on tag),,1486,"dispref (2, bidope.wav)",AP,213905,,,,,p,,,(based on tag)
111,AP,DisFirst_reg,,-0.7320644216691069,,DFi_2,(based on tag),,1366,"dispref (10, degope.wav)",AP,215425,,,,,p,,,(based on tag)
112,AP,DisFirst_reg,,-0.8312551953449709,,DFi_2,(based on tag),,1203,"dispref (31, todub.wav)",AP,216775,,,,,b,,,(based on tag)
113,AP,DisFirst_reg,,-0.8598452278589854,,DFi_2,(based on tag),,1163,"dispref (3, bikub.wav)",AP,218094,,,,,b,,,(based on tag)
114,AP,DisFirst_reg,,-0.4116920543433511,,DFi_2,(based on tag),,2429,"dispref (8, bugipe.wav)",AP,220674,,,,,p,,,(based on tag)
115,AP,DisFirst_reg,,-0.7627765064836003,,DFi_2,(based on tag),,1311,"dispref (14, dogipe.wav)",AP,222173,,,,,p,,,(based on tag)
116,AP,DisFirst_reg,,-1.017293997965412,,DFi_2,(based on tag),,983,"dispref (15, dokub.wav)",AP,223313,,,,,b,,,(based on tag)
117,AP,DisFirst_reg,,-0.7686395080707148,,DFi_2,(based on tag),,1301,"dispref (18, gotepe.wav)",AP,224793,,,,,p,,,(based on tag)
118,AP,DisFirst_reg,,-0.7127583749109052,,DFi_2,(based on tag),,1403,"dispref (22, pidope.wav)",AP,226383,,,,,p,,,(based on tag)
119,AP,DisFirst_reg,,-1.0905125408942202,,DFi_2,(based on tag),,917,"dispref (1, bidob.wav)",AP,227452,,,,,b,,,(based on tag)
120,AP,DisFirst_reg,,-0.6447453255963894,,DFi_2,(based on tag),,1551,"dispref (4, bikupe.wav)",AP,229162,,,,,p,,,(based on tag)
121,AP,DisFirst_reg,,-0.2644802962179318,,DFi_2,(any response),,3781,Please take a b...,AP,231392,,,,,,,,(any response)
122,AP,DisFirst_reg,,-0.6784260515603799,,DFi_2,(based on tag),,1474,"dispref (32, todupe.wav)",AP,233081,,,,,p,,,(based on tag)
123,AP,DisFirst_reg,,-1.017293997965412,,DFi_2,(based on tag),,983,"dispref (11, dikeb.wav)",AP,234221,,,,,b,,,(based on tag)
124,AP,DisFirst_reg,,-0.927643784786642,,DFi_2,(based on tag),,1078,"dispref (29, todib.wav)",AP,235471,,,,,b,,,(based on tag)
125,AP,DisFirst_reg,,-0.7374631268436578,,DFi_2,(based on tag),,1356,"dispref (27, tekub.wav)",AP,237021,,,,,b,,,(based on tag)
126,AP,DisFirst_reg,,-0.8460236886632826,,DFi_2,(based on tag),,1182,"dispref (1, bidob.wav)",AP,238361,,,,,b,,,(based on tag)
127,AP,DisFirst_reg,,-0.7668711656441718,,DFi_2,(based on tag),,1304,"dispref (26, potipe.wav)",AP,239830,,,,,p,,,(based on tag)
128,AP,DisFirst_reg,,-1.0570824524312896,,DFi_2,(based on tag),,946,"dispref (23, pigeb.wav)",AP,240940,,,,,b,,,(based on tag)
129,AP,DisFirst_reg,,-0.6501950585175552,,DFi_2,(based on tag),,1538,"dispref (4, bikupe.wav)",AP,242630,,,,,p,,,(based on tag)
130,AP,DisFirst_reg,,-0.7407407407407407,,DFi_2,(based on tag),,1350,"dispref (18, gotepe.wav)",AP,244139,,,,,p,,,(based on tag)
131,AP,DisFirst_reg,,-0.5865102639296188,,DFi_2,(based on tag),,1705,"dispref (22, pidope.wav)",AP,246009,,,,,p,,,(based on tag)
132,AP,DisFirst_reg,,-0.8944543828264758,,DFi_2,(based on tag),,1118,"dispref (3, bikub.wav)",AP,247299,,,,,b,,,(based on tag)
133,AP,DisFirst_reg,,-0.6464124111182935,,DFi_2,(based on tag),,1547,"dispref (21, pidob.wav)",AP,249009,,,,,b,,,(based on tag)
134,AP,DisFirst_reg,,-0.7168458781362007,,DFi_2,(based on tag),,1395,"dispref (8, bugipe.wav)",AP,250618,,,,,p,,,(based on tag)
135,AP,DisFirst_reg,,-0.966183574879227,,DFi_2,(based on tag),,1035,"dispref (7, bugib.wav)",AP,251808,,,,,b,,,(based on tag)
136,AP,DisFirst_reg,,-0.3808073115003808,,DFi_2,(based on tag),,2626,"dispref (9, degob.wav)",AP,254618,,,,,b,,,(based on tag)
137,AP,DisFirst_reg,,-0.9233610341643582,,DFi_2,(based on tag),,1083,"dispref (5, bogeb.wav)",AP,255857,,,,,b,,,(based on tag)
138,AP,DisFirst_reg,,-0.6896551724137931,,DFi_2,(based on tag),,1450,"dispref (20, gutope.wav)",AP,257467,,,,,p,,,(based on tag)
139,AP,DisFirst_reg,,-0.6317119393556538,,DFi_2,(based on tag),,1583,"dispref (10, degope.wav)",AP,259207,,,,,p,,,(based on tag)
140,AP,DisFirst_reg,,-0.5868544600938967,,DFi_2,(based on tag),,1704,"dispref (12, dikepe.wav)",AP,261076,,,,,p,,,(based on tag)
141,AP,DisFirst_reg,,-0.6211180124223602,,DFi_2,(based on tag),,1610,"dispref (24, pigepe.wav)",AP,262836,,,,,p,,,(based on tag)
142,AP,DisFirst_reg,,-1.303780964797914,,DFi_2,(based on tag),,767,"dispref (19, gutob.wav)",AP,263756,,,,,b,,,(based on tag)
143,AP,DisFirst_reg,,-0.9363295880149812,,DFi_2,(based on tag),,1068,"dispref (17, goteb.wav)",AP,265106,,,,,b,,,(based on tag)
144,AP,DisFirst_reg,,-0.8771929824561403,,DFi_2,(based on tag),,1140,"dispref (30, todipe.wav)",AP,266396,,,,,p,,,(based on tag)
145,AP,DisFirst_reg,,-0.777000777000777,,DFi_2,(based on tag),,1287,"dispref (28, tekupe.wav)",AP,267965,,,,,p,,,(based on tag)
146,AP,DisFirst_reg,,-0.7818608287724785,,DFi_2,(based on tag),,1279,"dispref (2, bidope.wav)",AP,269405,,,,,p,,,(based on tag)
147,AP,DisFirst_reg,,-0.5017561465127948,,DFi_2,(based on tag),,1993,"dispref (6, bogepe.wav)",AP,271564,,,,,p,,,(based on tag)
148,AP,DisFirst_reg,,-1.0214504596527068,,DFi_2,(based on tag),,979,"dispref (31, todub.wav)",AP,272694,,,,,b,,,(based on tag)
149,AP,DisFirst_reg,,-0.819000819000819,,DFi_2,(based on tag),,1221,"dispref (15, dokub.wav)",AP,274064,,,,,b,,,(based on tag)
150,AP,DisFirst_reg,,-0.7513148009015778,,DFi_2,(based on tag),,1331,"dispref (14, dogipe.wav)",AP,275544,,,,,p,,,(based on tag)
151,AP,DisFirst_reg,,-0.7189072609633357,,DFi_2,(based on tag),,1391,"dispref (25, potib.wav)",AP,277084,,,,,b,,,(based on tag)
152,AP,DisFirst_reg,,-0.7541478129713424,,DFi_2,(based on tag),,1326,"dispref (13, dogib.wav)",AP,278563,,,,,b,,,(based on tag)
153,AP,DisFirst_reg,,-0.9140767824497258,,DFi_2,(based on tag),,1094,"dispref (16, dokupe.wav)",AP,279803,,,,,p,,,(based on tag)
154,AP,DisFirst_reg,,-0.3443526170798898,,DFi_2,(any response),,2904,Please take a b...,AP,281613,,,,,,,,(any response)
155,AP,DisFirst_reg,,-0.6765899864682002,,DFi_2,(based on tag),,1478,"dispref (8, bugipe.wav)",AP,283312,,,,,p,,,(based on tag)
156,AP,DisFirst_reg,,-0.925925925925926,,DFi_2,(based on tag),,1080,"dispref (13, dogib.wav)",AP,284562,,,,,b,,,(based on tag)
157,AP,DisFirst_reg,,-0.8703220191470844,,DFi_2,(based on tag),,1149,"dispref (10, degope.wav)",AP,285862,,,,,p,,,(based on tag)
158,AP,DisFirst_reg,,-0.6934812760055479,,DFi_2,(based on tag),,1442,"dispref (30, todipe.wav)",AP,287571,,,,,p,,,(based on tag)
159,AP,DisFirst_reg,,-0.8271298593879239,,DFi_2,(based on tag),,1209,"dispref (26, potipe.wav)",AP,288931,,,,,p,,,(based on tag)
160,AP,DisFirst_reg,,-1.182033096926714,,DFi_2,(based on tag),,846,"dispref (11, dikeb.wav)",AP,289981,,,,,b,,,(based on tag)
161,AP,DisFirst_reg,,-0.5980861244019139,,DFi_2,(based on tag),,1672,"dispref (29, todib.wav)",AP,291861,,,,,b,,,(based on tag)
162,AP,DisFirst_reg,,-0.8896797153024911,,DFi_2,(based on tag),,1124,"dispref (25, potib.wav)",AP,293151,,,,,b,,,(based on tag)
163,AP,DisFirst_reg,,-0.6142506142506142,,DFi_2,(based on tag),,1628,"dispref (6, bogepe.wav)",AP,294930,,,,,p,,,(based on tag)
164,AP,DisFirst_reg,,-0.5364806866952789,,DFi_2,(based on tag),,1864,"dispref (9, degob.wav)",AP,296980,,,,,b,,,(based on tag)
165,AP,DisFirst_reg,,-0.7336757153338225,,DFi_2,(based on tag),,1363,"dispref (28, tekupe.wav)",AP,298530,,,,,p,,,(based on tag)
166,AP,DisFirst_reg,,-0.6557377049180327,,DFi_2,(based on tag),,1525,"dispref (16, dokupe.wav)",AP,300249,,,,,p,,,(based on tag)
167,AP,DisFirst_reg,,-0.7598784194528876,,DFi_2,(based on tag),,1316,"dispref (7, bugib.wav)",AP,301719,,,,,b,,,(based on tag)
168,AP,DisFirst_reg,,-0.5977286312014346,,DFi_2,(based on tag),,1673,"dispref (1, bidob.wav)",AP,303539,,,,,b,,,(based on tag)
169,AP,DisFirst_reg,,-0.5488474204171241,,DFi_2,(based on tag),,1822,"dispref (12, dikepe.wav)",AP,305548,,,,,p,,,(based on tag)
170,AP,DisFirst_reg,,-0.9852216748768472,,DFi_2,(based on tag),,1015,"dispref (21, pidob.wav)",AP,306728,,,,,b,,,(based on tag)
171,AP,DisFirst_reg,,-0.9671179883945842,,DFi_2,(based on tag),,1034,"dispref (27, tekub.wav)",AP,307928,,,,,b,,,(based on tag)
172,AP,DisFirst_reg,,-0.5889281507656066,,DFi_2,(based on tag),,1698,"dispref (22, pidope.wav)",AP,309778,,,,,p,,,(based on tag)
173,AP,DisFirst_reg,,-0.6013229104028863,,DFi_2,(based on tag),,1663,"dispref (32, todupe.wav)",AP,311607,,,,,p,,,(based on tag)
174,AP,DisFirst_reg,,-1.0351966873706004,,DFi_2,(based on tag),,966,"dispref (17, goteb.wav)",AP,312737,,,,,b,,,(based on tag)
175,AP,DisFirst_reg,,-1.0660980810234542,,DFi_2,(based on tag),,938,"dispref (5, bogeb.wav)",AP,313847,,,,,b,,,(based on tag)
176,AP,DisFirst_reg,,-0.7763975155279503,,DFi_2,(based on tag),,1288,"dispref (3, bikub.wav)",AP,315287,,,,,b,,,(based on tag)
177,AP,DisFirst_reg,,-0.9560229445506692,,DFi_2,(based on tag),,1046,"dispref (19, gutob.wav)",AP,316486,,,,,b,,,(based on tag)
178,AP,DisFirst_reg,,-0.7836990595611285,,DFi_2,(based on tag),,1276,"dispref (20, gutope.wav)",AP,317916,,,,,p,,,(based on tag)
179,AP,DisFirst_reg,,-0.7855459544383346,,DFi_2,(based on tag),,1273,"dispref (18, gotepe.wav)",AP,319336,,,,,p,,,(based on tag)
180,AP,DisFirst_reg,,-0.7479431563201197,,DFi_2,(based on tag),,1337,"dispref (2, bidope.wav)",AP,320825,,,,,p,,,(based on tag)
181,AP,DisFirst_reg,,-0.8143322475570033,,DFi_2,(based on tag),,1228,"dispref (24, pigepe.wav)",AP,322205,,,,,p,,,(based on tag)
182,AP,DisFirst_reg,,-0.9514747859181732,,DFi_2,(based on tag),,1051,"dispref (31, todub.wav)",AP,323425,,,,,b,,,(based on tag)
183,AP,DisFirst_reg,,-1.0810810810810811,,DFi_2,(based on tag),,925,"dispref (15, dokub.wav)",AP,324515,,,,,b,,,(based on tag)
184,AP,DisFirst_reg,,-0.5714285714285714,,DFi_2,(based on tag),,1750,"dispref (23, pigeb.wav)",AP,326424,,,,,b,,,(based on tag)
185,AP,DisFirst_reg,,-0.7716049382716049,,DFi_2,(based on tag),,1296,"dispref (4, bikupe.wav)",AP,327884,,,,,p,,,(based on tag)
186,AP,DisFirst_reg,,-0.6939625260235948,,DFi_2,(based on tag),,1441,"dispref (14, dogipe.wav)",AP,329494,,,,,p,,,(based on tag)
187,AP,DisFirst_reg,,-0.3716090672612411,,DFi_2,(any response),,2691,Please take a b...,AP,330744,,,,,,,,(any response)
188,AP,DisFirst_reg,,-0.5070993914807302,,DFi_2,(based on tag),,1972,"Pref (25, gotebe.wav)",AP,332993,,,,,b,,,(based on tag)
189,AP,DisFirst_reg,,-0.8032128514056225,,DFi_2,(based on tag),,1245,"Pref (19, bogebe.wav)",AP,334403,,,,,b,,,(based on tag)
190,AP,DisFirst_reg,,-0.6688963210702341,,DFi_2,(based on tag),,1495,"Pref (32, todube.wav)",AP,336053,,,,,b,,,(based on tag)
191,AP,DisFirst_reg,,-0.5787037037037037,,DFi_2,(based on tag),,1728,"Pref (24, dokube.wav)",AP,337932,,,,,b,,,(based on tag)
192,AP,DisFirst_reg,,-1.1737089201877935,,DFi_2,(based on tag),,852,"Pref (8, dokup.wav)",AP,338932,,,,,p,,,(based on tag)
193,AP,DisFirst_reg,,-0.9380863039399624,,DFi_2,(based on tag),,1066,"Pref (15, todip.wav)",AP,340242,,,,,p,,,(based on tag)
194,AP,DisFirst_reg,,-0.8116883116883117,,DFi_2,(based on tag),,1232,"Pref (16, todup.wav)",AP,341652,,,,,p,,,(based on tag)
195,AP,DisFirst_reg,,-0.5546311702717692,,DFi_2,(based on tag),,1803,"Pref (9, gotep.wav)",AP,343642,,,,,p,,,(based on tag)
196,AP,DisFirst_reg,,-0.6207324643078833,,DFi_2,(based on tag),,1611,"Pref (30, tekube.wav)",AP,345441,,,,,b,,,(based on tag)
197,AP,DisFirst_reg,,-0.727802037845706,,DFi_2,(based on tag),,1374,"Pref (7, dogip.wav)",AP,346971,,,,,p,,,(based on tag)
198,AP,DisFirst_reg,,-0.6468305304010349,,DFi_2,(based on tag),,1546,"Pref (14, tekup.wav)",AP,348670,,,,,p,,,(based on tag)
199,AP,DisFirst_reg,,-0.9242144177449167,,DFi_2,(based on tag),,1082,"Pref (4, bugip.wav)",AP,349910,,,,,p,,,(based on tag)
200,AP,DisFirst_reg,,-0.794912559618442,,DFi_2,(based on tag),,1258,"Pref (31, todibe.wav)",AP,351320,,,,,b,,,(based on tag)
201,AP,DisFirst_reg,,-0.7692307692307693,,DFi_2,(based on tag),,1300,"Pref (26, gutobe.wav)",AP,352769,,,,,b,,,(based on tag)
202,AP,DisFirst_reg,,-0.5652911249293386,,DFi_2,(based on tag),,1769,"Pref (23, dogibe.wav)",AP,354689,,,,,b,,,(based on tag)
203,AP,DisFirst_reg,,-0.3602305475504322,,DFi_2,(based on tag),,2776,"Pref (29, potibe.wav)",AP,357629,,,,,b,,,(based on tag)
204,AP,DisFirst_reg,,-0.5186721991701245,,DFi_2,(based on tag),,1928,"Pref (5, degop.wav)",AP,359738,,,,,p,,,(based on tag)
205,AP,DisFirst_reg,,-0.6715916722632639,,DFi_2,(based on tag),,1489,"Pref (12, pigep.wav)",AP,361388,,,,,p,,,(based on tag)
206,AP,DisFirst_reg,,-0.6958942240779401,,DFi_2,(based on tag),,1437,"Pref (13, potip.wav)",AP,362988,,,,,p,,,(based on tag)
207,AP,DisFirst_reg,,-0.4662004662004662,,DFi_2,(based on tag),,2145,"Pref (20, bugibe.wav)",AP,365287,,,,,b,,,(based on tag)
208,AP,DisFirst_reg,,-0.5050505050505051,,DFi_2,(based on tag),,1980,"Pref (10, gutop.wav)",AP,367417,,,,,p,,,(based on tag)
209,AP,DisFirst_reg,,-0.585480093676815,,DFi_2,(based on tag),,1708,"Pref (6, dikep.wav)",AP,369347,,,,,p,,,(based on tag)
210,AP,DisFirst_reg,,-0.4053506282934738,,DFi_2,(based on tag),,2467,"Pref (11, pidop.wav)",AP,371966,,,,,p,,,(based on tag)
211,AP,DisFirst_reg,,-0.4842615012106537,,DFi_2,(based on tag),,2065,"Pref (22, dikebe.wav)",AP,374186,,,,,b,,,(based on tag)
212,AP,DisFirst_reg,,-0.3933910306845004,,DFi_2,(based on tag),,2542,"Pref (18, bikube.wav)",AP,376935,,,,,b,,,(based on tag)
213,AP,DisFirst_reg,,-0.6238303181534622,,DFi_2,(based on tag),,1603,"Pref (17, bidobe.wav)",AP,378705,,,,,b,,,(based on tag)
214,AP,DisFirst_reg,,-0.8673026886383348,,DFi_2,(based on tag),,1153,"Pref (2, bikup.wav)",AP,380005,,,,,p,,,(based on tag)
215,AP,DisFirst_reg,,-0.5083884087442806,,DFi_2,(based on tag),,1967,"Pref (28, pigebe.wav)",AP,382124,,,,,b,,,(based on tag)
216,AP,DisFirst_reg,,-0.5780346820809249,,DFi_2,(based on tag),,1730,"Pref (21, degobe.wav)",AP,384014,,,,,b,,,(based on tag)
217,AP,DisFirst_reg,,-0.66711140760507,,DFi_2,(based on tag),,1499,"Pref (3, bogep.wav)",AP,385714,,,,,p,,,(based on tag)
218,AP,DisFirst_reg,,-0.6377551020408163,,DFi_2,(based on tag),,1568,"Pref (1, bidop.wav)",AP,387443,,,,,p,,,(based on tag)
219,AP,DisFirst_reg,,-0.4528985507246377,,DFi_2,(based on tag),,2208,"Pref (27, pidobe.wav)",AP,389803,,,,,b,,,(based on tag)
220,AP,DisFirst_reg,,-0.4314063848144953,,DFi_2,(any response),,2318,Please take a b...,AP,389913,,,,,,,,(any response)
221,AP,DisFirst_reg,,-0.6557377049180327,,DFi_2,(based on tag),,1525,"Pref (7, dogip.wav)",AP,391653,,,,,p,,,(based on tag)
222,AP,DisFirst_reg,,-0.7633587786259542,,DFi_2,(based on tag),,1310,"Pref (9, gotep.wav)",AP,393112,,,,,p,,,(based on tag)
223,AP,DisFirst_reg,,-0.3523608174770965,,DFi_2,(based on tag),,2838,"Pref (21, degobe.wav)",AP,396102,,,,,b,,,(based on tag)
224,AP,DisFirst_reg,,-0.7616146230007617,,DFi_2,(based on tag),,1313,"Pref (15, todip.wav)",AP,397581,,,,,p,,,(based on tag)
225,AP,DisFirst_reg,,-0.7293946024799417,,DFi_2,(based on tag),,1371,"Pref (1, bidop.wav)",AP,399111,,,,,p,,,(based on tag)
226,AP,DisFirst_reg,,-0.4299226139294927,,DFi_2,(based on tag),,2326,"Pref (29, potibe.wav)",AP,401591,,,,,b,,,(based on tag)
227,AP,DisFirst_reg,,-0.78064012490242,,DFi_2,(based on tag),,1281,"Pref (26, gutobe.wav)",AP,403030,,,,,b,,,(based on tag)
228,AP,DisFirst_reg,,-0.7692307692307693,,DFi_2,(based on tag),,1300,"Pref (25, gotebe.wav)",AP,404480,,,,,b,,,(based on tag)
229,AP,DisFirst_reg,,-0.779423226812159,,DFi_2,(based on tag),,1283,"Pref (31, todibe.wav)",AP,405980,,,,,b,,,(based on tag)
230,AP,DisFirst_reg,,-0.3988831272437176,,DFi_2,(based on tag),,2507,"Pref (2, bikup.wav)",AP,408639,,,,,p,,,(based on tag)
231,AP,DisFirst_reg,,-0.9881422924901184,,DFi_2,(based on tag),,1012,"Pref (8, dokup.wav)",AP,409869,,,,,p,,,(based on tag)
232,AP,DisFirst_reg,,-0.6373486297004461,,DFi_2,(based on tag),,1569,"Pref (24, dokube.wav)",AP,411589,,,,,b,,,(based on tag)
233,AP,DisFirst_reg,,-0.8278145695364238,,DFi_2,(based on tag),,1208,"Pref (11, pidop.wav)",AP,412948,,,,,p,,,(based on tag)
234,AP,DisFirst_reg,,-0.5817335660267597,,DFi_2,(based on tag),,1719,"Pref (16, todup.wav)",AP,414818,,,,,p,,,(based on tag)
235,AP,DisFirst_reg,,-0.7886435331230284,,DFi_2,(based on tag),,1268,"Pref (10, gutop.wav)",AP,416248,,,,,p,,,(based on tag)
236,AP,DisFirst_reg,,-0.4295532646048109,,DFi_2,(based on tag),,2328,"Pref (23, dogibe.wav)",AP,418728,,,,,b,,,(based on tag)
237,AP,DisFirst_reg,,-0.4312203536006899,,DFi_2,(based on tag),,2319,"Pref (20, bugibe.wav)",AP,421207,,,,,b,,,(based on tag)
238,AP,DisFirst_reg,,-0.7189072609633357,,DFi_2,(based on tag),,1391,"Pref (27, pidobe.wav)",AP,422767,,,,,b,,,(based on tag)
239,AP,DisFirst_reg,,-0.6920415224913494,,DFi_2,(based on tag),,1445,"Pref (17, bidobe.wav)",AP,424386,,,,,b,,,(based on tag)
240,AP,DisFirst_reg,,-0.6631299734748011,,DFi_2,(based on tag),,1508,"Pref (14, tekup.wav)",AP,426056,,,,,p,,,(based on tag)
241,AP,DisFirst_reg,,-0.6035003017501509,,DFi_2,(based on tag),,1657,"Pref (30, tekube.wav)",AP,427876,,,,,b,,,(based on tag)
242,AP,DisFirst_reg,,-0.5871990604815033,,DFi_2,(based on tag),,1703,"Pref (19, bogebe.wav)",AP,429725,,,,,b,,,(based on tag)
243,AP,DisFirst_reg,,-0.6013229104028863,,DFi_2,(based on tag),,1663,"Pref (4, bugip.wav)",AP,431555,,,,,p,,,(based on tag)
244,AP,DisFirst_reg,,-0.8038585209003215,,DFi_2,(based on tag),,1244,"Pref (12, pigep.wav)",AP,432965,,,,,p,,,(based on tag)
245,AP,DisFirst_reg,,-0.8340283569641368,,DFi_2,(based on tag),,1199,"Pref (3, bogep.wav)",AP,434364,,,,,p,,,(based on tag)
246,AP,DisFirst_reg,,-0.3460207612456747,,DFi_2,(based on tag),,2890,"Pref (18, bikube.wav)",AP,437404,,,,,b,,,(based on tag)
247,AP,DisFirst_reg,,-0.7057163020465773,,DFi_2,(based on tag),,1417,"Pref (28, pigebe.wav)",AP,438984,,,,,b,,,(based on tag)
248,AP,DisFirst_reg,,-0.7739938080495357,,DFi_2,(based on tag),,1292,"Pref (22, dikebe.wav)",AP,440424,,,,,b,,,(based on tag)
249,AP,DisFirst_reg,,-0.4604051565377532,,DFi_2,(based on tag),,2172,"Pref (13, potip.wav)",AP,442753,,,,,p,,,(based on tag)
250,AP,DisFirst_reg,,-0.8517887563884157,,DFi_2,(based on tag),,1174,"Pref (5, degop.wav)",AP,444103,,,,,p,,,(based on tag)
251,AP,DisFirst_reg,,-0.3522367030644593,,DFi_2,(based on tag),,2839,"Pref (32, todube.wav)",AP,447092,,,,,b,,,(based on tag)
252,AP,DisFirst_reg,,-0.4789272030651341,,DFi_2,(based on tag),,2088,"Pref (6, dikep.wav)",AP,449362,,,,,p,,,(based on tag)
253,AP,DisFirst_reg,,-0.2552322613578356,,DFi_2,(any response),,3918,Please take a b...,AP,451192,,,,,,,,(any response)
254,AP,DisFirst_reg,,-0.4782400765184122,,DFi_2,(based on tag),,2091,"Pref (18, bikube.wav)",AP,453511,,,,,b,,,(based on tag)
255,AP,DisFirst_reg,,-0.7558578987150416,,DFi_2,(based on tag),,1323,"Pref (19, bogebe.wav)",AP,455001,,,,,b,,,(based on tag)
256,AP,DisFirst_reg,,-0.6188118811881188,,DFi_2,(based on tag),,1616,"Pref (32, todube.wav)",AP,456771,,,,,b,,,(based on tag)
257,AP,DisFirst_reg,,-0.7886435331230284,,DFi_2,(based on tag),,1268,"Pref (21, degobe.wav)",AP,458190,,,,,b,,,(based on tag)
258,AP,DisFirst_reg,,-0.6788866259334692,,DFi_2,(based on tag),,1473,"Pref (20, bugibe.wav)",AP,459820,,,,,b,,,(based on tag)
259,AP,DisFirst_reg,,-0.779423226812159,,DFi_2,(based on tag),,1283,"Pref (1, bidop.wav)",AP,461360,,,,,p,,,(based on tag)
260,AP,DisFirst_reg,,-0.78125,,DFi_2,(based on tag),,1280,"Pref (14, tekup.wav)",AP,462799,,,,,p,,,(based on tag)
261,AP,DisFirst_reg,,-0.9699321047526672,,DFi_2,(based on tag),,1031,"Pref (15, todip.wav)",AP,463989,,,,,p,,,(based on tag)
262,AP,DisFirst_reg,,-0.8802816901408451,,DFi_2,(based on tag),,1136,"Pref (8, dokup.wav)",AP,465289,,,,,p,,,(based on tag)
263,AP,DisFirst_reg,,-0.8904719501335708,,DFi_2,(based on tag),,1123,"Pref (13, potip.wav)",AP,466559,,,,,p,,,(based on tag)
264,AP,DisFirst_reg,,-0.6060606060606061,,DFi_2,(based on tag),,1650,"Pref (12, pigep.wav)",AP,468358,,,,,p,,,(based on tag)
265,AP,DisFirst_reg,,-0.925925925925926,,DFi_2,(based on tag),,1080,"Pref (16, todup.wav)",AP,469588,,,,,p,,,(based on tag)
266,AP,DisFirst_reg,,-0.8771929824561403,,DFi_2,(based on tag),,1140,"Pref (3, bogep.wav)",AP,470908,,,,,p,,,(based on tag)
267,AP,DisFirst_reg,,-0.723589001447178,,DFi_2,(based on tag),,1382,"Pref (27, pidobe.wav)",AP,472438,,,,,b,,,(based on tag)
268,AP,DisFirst_reg,,-0.7496251874062968,,DFi_2,(based on tag),,1334,"Pref (9, gotep.wav)",AP,473937,,,,,p,,,(based on tag)
269,AP,DisFirst_reg,,-0.9124087591240876,,DFi_2,(based on tag),,1096,"Pref (26, gutobe.wav)",AP,475177,,,,,b,,,(based on tag)
270,AP,DisFirst_reg,,-0.7304601899196493,,DFi_2,(based on tag),,1369,"Pref (17, bidobe.wav)",AP,476767,,,,,b,,,(based on tag)
271,AP,DisFirst_reg,,-0.7824726134585289,,DFi_2,(based on tag),,1278,"Pref (2, bikup.wav)",AP,478197,,,,,p,,,(based on tag)
272,AP,DisFirst_reg,,-0.5249343832020997,,DFi_2,(based on tag),,1905,"Pref (23, dogibe.wav)",AP,480266,,,,,b,,,(based on tag)
273,AP,DisFirst_reg,,-0.8090614886731392,,DFi_2,(based on tag),,1236,"Pref (22, dikebe.wav)",AP,481666,,,,,b,,,(based on tag)
274,AP,DisFirst_reg,,-0.5959475566150179,,DFi_2,(based on tag),,1678,"Pref (25, gotebe.wav)",AP,483496,,,,,b,,,(based on tag)
275,AP,DisFirst_reg,,-0.6086427267194157,,DFi_2,(based on tag),,1643,"Pref (7, dogip.wav)",AP,485285,,,,,p,,,(based on tag)
276,AP,DisFirst_reg,,-0.4719207173194903,,DFi_2,(based on tag),,2119,"Pref (24, dokube.wav)",AP,487625,,,,,b,,,(based on tag)
277,AP,DisFirst_reg,,-0.8904719501335708,,DFi_2,(based on tag),,1123,"Pref (4, bugip.wav)",AP,488904,,,,,p,,,(based on tag)
278,AP,DisFirst_reg,,-0.3669724770642202,,DFi_2,(based on tag),,2725,"Pref (29, potibe.wav)",AP,491784,,,,,b,,,(based on tag)
279,AP,DisFirst_reg,,-0.7401924500370096,,DFi_2,(based on tag),,1351,"Pref (11, pidop.wav)",AP,493334,,,,,p,,,(based on tag)
280,AP,DisFirst_reg,,-0.7342143906020558,,DFi_2,(based on tag),,1362,"Pref (30, tekube.wav)",AP,494843,,,,,b,,,(based on tag)
281,AP,DisFirst_reg,,-0.8841732979664014,,DFi_2,(based on tag),,1131,"Pref (6, dikep.wav)",AP,496123,,,,,p,,,(based on tag)
282,AP,DisFirst_reg,,-0.7621951219512195,,DFi_2,(based on tag),,1312,"Pref (10, gutop.wav)",AP,497603,,,,,p,,,(based on tag)
283,AP,DisFirst_reg,,-0.6680026720106881,,DFi_2,(based on tag),,1497,"Pref (5, degop.wav)",AP,499273,,,,,p,,,(based on tag)
284,AP,DisFirst_reg,,-0.6788866259334692,,DFi_2,(based on tag),,1473,"Pref (31, todibe.wav)",AP,500902,,,,,b,,,(based on tag)
285,AP,DisFirst_reg,,-0.6013229104028863,,DFi_2,(based on tag),,1663,"Pref (28, pigebe.wav)",AP,502722,,,,,b,,,(based on tag)
286,AP,DisFirst_reg,,-0.2854695974878675,,DFi_2,(any response),,3503,Please take a b...,AP,504562,,,,,,,,(any response)
287,AP,DisFirst_reg,,-0.6215040397762586,,DFi_2,(based on tag),,1609,"Pref (30, tekube.wav)",AP,506411,,,,,b,,,(based on tag)
288,AP,DisFirst_reg,,-0.8598452278589854,,DFi_2,(based on tag),,1163,"Pref (12, pigep.wav)",AP,507781,,,,,p,,,(based on tag)
289,AP,DisFirst_reg,,-0.8103727714748784,,DFi_2,(based on tag),,1234,"Pref (19, bogebe.wav)",AP,509221,,,,,b,,,(based on tag)
290,AP,DisFirst_reg,,-0.8539709649871904,,DFi_2,(based on tag),,1171,"Pref (3, bogep.wav)",AP,510541,,,,,p,,,(based on tag)
291,AP,DisFirst_reg,,-0.8665511265164645,,DFi_2,(based on tag),,1154,"Pref (7, dogip.wav)",AP,511860,,,,,p,,,(based on tag)
292,AP,DisFirst_reg,,-0.4672897196261682,,DFi_2,(based on tag),,2140,"Pref (25, gotebe.wav)",AP,514170,,,,,b,,,(based on tag)
293,AP,DisFirst_reg,,-0.9033423667570007,,DFi_2,(based on tag),,1107,"Pref (1, bidop.wav)",AP,515440,,,,,p,,,(based on tag)
294,AP,DisFirst_reg,,-0.7385524372230429,,DFi_2,(based on tag),,1354,"Pref (9, gotep.wav)",AP,516990,,,,,p,,,(based on tag)
295,AP,DisFirst_reg,,-0.8298755186721992,,DFi_2,(based on tag),,1205,"Pref (28, pigebe.wav)",AP,518359,,,,,b,,,(based on tag)
296,AP,DisFirst_reg,,-0.5128205128205128,,DFi_2,(based on tag),,1950,"Pref (17, bidobe.wav)",AP,520459,,,,,b,,,(based on tag)
297,AP,DisFirst_reg,,-0.6711409395973155,,DFi_2,(based on tag),,1490,"Pref (11, pidop.wav)",AP,522148,,,,,p,,,(based on tag)
298,AP,DisFirst_reg,,-0.778816199376947,,DFi_2,(based on tag),,1284,"Pref (10, gutop.wav)",AP,523598,,,,,p,,,(based on tag)
299,AP,DisFirst_reg,,-0.6002400960384153,,DFi_2,(based on tag),,1666,"Pref (20, bugibe.wav)",AP,525428,,,,,b,,,(based on tag)
300,AP,DisFirst_reg,,-0.6684491978609626,,DFi_2,(based on tag),,1496,"Pref (31, todibe.wav)",AP,527078,,,,,b,,,(based on tag)
301,AP,DisFirst_reg,,-0.7874015748031497,,DFi_2,(based on tag),,1270,"Pref (8, dokup.wav)",AP,528507,,,,,p,,,(based on tag)
302,AP,DisFirst_reg,,-0.6349206349206349,,DFi_2,(based on tag),,1575,"Pref (24, dokube.wav)",AP,530237,,,,,b,,,(based on tag)
303,AP,DisFirst_reg,,-0.6153846153846154,,DFi_2,(based on tag),,1625,"Pref (4, bugip.wav)",AP,532046,,,,,p,,,(based on tag)
304,AP,DisFirst_reg,,-0.6226650062266501,,DFi_2,(based on tag),,1606,"Pref (2, bikup.wav)",AP,533816,,,,,p,,,(based on tag)
305,AP,DisFirst_reg,,-0.8748906386701663,,DFi_2,(based on tag),,1143,"Pref (6, dikep.wav)",AP,535126,,,,,p,,,(based on tag)
306,AP,DisFirst_reg,,-0.7380073800738007,,DFi_2,(based on tag),,1355,"Pref (26, gutobe.wav)",AP,536626,,,,,b,,,(based on tag)
307,AP,DisFirst_reg,,-0.6891798759476223,,DFi_2,(based on tag),,1451,"Pref (22, dikebe.wav)",AP,538226,,,,,b,,,(based on tag)
308,AP,DisFirst_reg,,-0.9746588693957114,,DFi_2,(based on tag),,1026,"Pref (15, todip.wav)",AP,539405,,,,,p,,,(based on tag)
309,AP,DisFirst_reg,,-0.6349206349206349,,DFi_2,(based on tag),,1575,"Pref (32, todube.wav)",AP,541145,,,,,b,,,(based on tag)
310,AP,DisFirst_reg,,-0.724112961622013,,DFi_2,(based on tag),,1381,"Pref (29, potibe.wav)",AP,542695,,,,,b,,,(based on tag)
311,AP,DisFirst_reg,,-0.4295532646048109,,DFi_2,(based on tag),,2328,"Pref (16, todup.wav)",AP,545174,,,,,p,,,(based on tag)
312,AP,DisFirst_reg,,-0.5807200929152149,,DFi_2,(based on tag),,1722,"Pref (21, degobe.wav)",AP,547084,,,,,b,,,(based on tag)
313,AP,DisFirst_reg,,-0.5803830528148578,,DFi_2,(based on tag),,1723,"Pref (18, bikube.wav)",AP,548954,,,,,b,,,(based on tag)
314,AP,DisFirst_reg,,-0.5711022272986864,,DFi_2,(based on tag),,1751,"Pref (23, dogibe.wav)",AP,550863,,,,,b,,,(based on tag)
315,AP,DisFirst_reg,,-0.9746588693957114,,DFi_2,(based on tag),,1026,"Pref (13, potip.wav)",AP,552053,,,,,p,,,(based on tag)
316,AP,DisFirst_reg,,-0.5305039787798409,,DFi_2,(based on tag),,1885,"Pref (27, pidobe.wav)",AP,554093,,,,,b,,,(based on tag)
317,AP,DisFirst_reg,,-0.5837711617046117,,DFi_2,(based on tag),,1713,"Pref (5, degop.wav)",AP,555972,,,,,p,,,(based on tag)
318,AP,DisFirst_reg,,-0.8984725965858041,,DFi_2,(based on tag),,1113,"Pref (14, tekup.wav)",AP,557242,,,,,p,,,(based on tag)
319,AP,DisFirst_reg,,-0.2830455703368242,,DFi_2,(any response),,3533,Please take a b...,AP,559662,,,,,,,,(any response)
320,AP,DisFirst_reg,,-0.4458314757021845,,DFi_2,(based on tag),,2243,"Pref (4, bugip.wav)",AP,562171,,,,,p,,,(based on tag)
321,AP,DisFirst_reg,,-0.6553079947575361,,DFi_2,(based on tag),,1526,"Pref (19, bogebe.wav)",AP,563861,,,,,b,,,(based on tag)
322,AP,DisFirst_reg,,-0.851063829787234,,DFi_2,(based on tag),,1175,"Pref (5, degop.wav)",AP,565230,,,,,p,,,(based on tag)
323,AP,DisFirst_reg,,-0.7855459544383346,,DFi_2,(based on tag),,1273,"Pref (11, pidop.wav)",AP,566650,,,,,p,,,(based on tag)
324,AP,DisFirst_reg,,-0.6779661016949152,,DFi_2,(based on tag),,1475,"Pref (32, todube.wav)",AP,568290,,,,,b,,,(based on tag)
325,AP,DisFirst_reg,,-0.7288629737609329,,DFi_2,(based on tag),,1372,"Pref (15, todip.wav)",AP,569820,,,,,p,,,(based on tag)
326,AP,DisFirst_reg,,-0.5254860746190226,,DFi_2,(based on tag),,1903,"Pref (30, tekube.wav)",AP,571869,,,,,b,,,(based on tag)
327,AP,DisFirst_reg,,-0.6218905472636815,,DFi_2,(based on tag),,1608,"Pref (26, gutobe.wav)",AP,573639,,,,,b,,,(based on tag)
328,AP,DisFirst_reg,,-0.6644518272425249,,DFi_2,(based on tag),,1505,"Pref (13, potip.wav)",AP,575299,,,,,p,,,(based on tag)
329,AP,DisFirst_reg,,-0.5834305717619603,,DFi_2,(based on tag),,1714,"Pref (31, todibe.wav)",AP,577168,,,,,b,,,(based on tag)
330,AP,DisFirst_reg,,-0.6793478260869565,,DFi_2,(based on tag),,1472,"Pref (10, gutop.wav)",AP,578788,,,,,p,,,(based on tag)
331,AP,DisFirst_reg,,-0.5602240896358543,,DFi_2,(based on tag),,1785,"Pref (18, bikube.wav)",AP,580738,,,,,b,,,(based on tag)
332,AP,DisFirst_reg,,-0.6958942240779401,,DFi_2,(based on tag),,1437,"Pref (21, degobe.wav)",AP,582337,,,,,b,,,(based on tag)
333,AP,DisFirst_reg,,-0.5633802816901409,,DFi_2,(based on tag),,1775,"Pref (7, dogip.wav)",AP,584327,,,,,p,,,(based on tag)
334,AP,DisFirst_reg,,-0.7102272727272727,,DFi_2,(based on tag),,1408,"Pref (23, dogibe.wav)",AP,585907,,,,,b,,,(based on tag)
335,AP,DisFirst_reg,,-1.0351966873706004,,DFi_2,(based on tag),,966,"Pref (9, gotep.wav)",AP,587057,,,,,p,,,(based on tag)
336,AP,DisFirst_reg,,-0.8340283569641368,,DFi_2,(based on tag),,1199,"Pref (25, gotebe.wav)",AP,588406,,,,,b,,,(based on tag)
337,AP,DisFirst_reg,,-0.7352941176470589,,DFi_2,(based on tag),,1360,"Pref (29, potibe.wav)",AP,589916,,,,,b,,,(based on tag)
338,AP,DisFirst_reg,,-0.4106776180698152,,DFi_2,(based on tag),,2435,"Pref (3, bogep.wav)",AP,592526,,,,,p,,,(based on tag)
339,AP,DisFirst_reg,,-0.6684491978609626,,DFi_2,(based on tag),,1496,"Pref (20, bugibe.wav)",AP,594215,,,,,b,,,(based on tag)
340,AP,DisFirst_reg,,-0.5263157894736842,,DFi_2,(based on tag),,1900,"Pref (17, bidobe.wav)",AP,596285,,,,,b,,,(based on tag)
341,AP,DisFirst_reg,,-0.7855459544383346,,DFi_2,(based on tag),,1273,"Pref (14, tekup.wav)",AP,597755,,,,,p,,,(based on tag)
342,AP,DisFirst_reg,,-0.5524861878453039,,DFi_2,(based on tag),,1810,"Pref (27, pidobe.wav)",AP,599754,,,,,b,,,(based on tag)
343,AP,DisFirst_reg,,-0.4302925989672977,,DFi_2,(based on tag),,2324,"Pref (8, dokup.wav)",AP,602244,,,,,p,,,(based on tag)
344,AP,DisFirst_reg,,-0.5341880341880342,,DFi_2,(based on tag),,1872,"Pref (28, pigebe.wav)",AP,604283,,,,,b,,,(based on tag)
345,AP,DisFirst_reg,,-0.8389261744966443,,DFi_2,(based on tag),,1192,"Pref (6, dikep.wav)",AP,605643,,,,,p,,,(based on tag)
346,AP,DisFirst_reg,,-0.4909180166912125,,DFi_2,(based on tag),,2037,"Pref (24, dokube.wav)",AP,607893,,,,,b,,,(based on tag)
347,AP,DisFirst_reg,,-0.6609385327164574,,DFi_2,(based on tag),,1513,"Pref (2, bikup.wav)",AP,609612,,,,,p,,,(based on tag)
348,AP,DisFirst_reg,,-0.8216926869350862,,DFi_2,(based on tag),,1217,"Pref (16, todup.wav)",AP,611062,,,,,p,,,(based on tag)
349,AP,DisFirst_reg,,-0.6693440428380187,,DFi_2,(based on tag),,1494,"Pref (12, pigep.wav)",AP,612722,,,,,p,,,(based on tag)
350,AP,DisFirst_reg,,-0.7067137809187279,,DFi_2,(based on tag),,1415,"Pref (22, dikebe.wav)",AP,614301,,,,,b,,,(based on tag)
351,AP,DisFirst_reg,,-0.6414368184733804,,DFi_2,(based on tag),,1559,"Pref (1, bidop.wav)",AP,616011,,,,,p,,,(based on tag)
352,AP,DisFirst_reg,,-0.3664345914254305,,DFi_2,(any response),,2729,Please take a b...,AP,617181,,,,,,,,(any response)
353,AP,DisFirst_reg,,-0.1980982567353407,,DFi_2,(any response),,5048,Debreifing,AP,622380,,,,,,,,(any response)
1, 6.30.25,DisFirst_reg,,-0.025040691123075,,Dis_reg1,(any response),,39935,Practice_Instructions, 6.30.25,39955,,,,,,,,(any response)
2, 6.30.25,DisFirst_reg,,-0.1866019779809666,,Dis_reg1,(based on tag),,5359,"Practice (1, bumblebee.wav)", 6.30.25,45834,,,,,b,,,(based on tag)
3, 6.30.25,DisFirst_reg,,-0.2437241043139166,,Dis_reg1,(based on tag),,4103,"Practice (2, canopy.wav)", 6.30.25,50583,,,,,p,,,(based on tag)
4, 6.30.25,DisFirst_reg,,-0.5141388174807198,,Dis_reg1,(based on tag),,1945,"Practice (3, cob.wav)", 6.30.25,53183,,,,,b,,,(based on tag)
5, 6.30.25,DisFirst_reg,,-0.6887052341597796,,Dis_reg1,(based on tag),,1452,"Practice (4, copy.wav)", 6.30.25,55282,,,,,p,,,(based on tag)
6, 6.30.25,DisFirst_reg,,-0.2239641657334826,,Dis_reg1,(based on tag),,4465,"Practice (5, crab.wav)", 6.30.25,60391,,,,,b,,,(based on tag)
7, 6.30.25,DisFirst_reg,,-0.7716049382716049,,Dis_reg1,(based on tag),,1296,"Practice (6, crimp.wav)", 6.30.25,62331,,,,,p,,,(based on tag)
8, 6.30.25,DisFirst_reg,,-0.6146281499692686,,Dis_reg1,(based on tag),,1627,"Practice (7, flop.wav)", 6.30.25,64561,,,,,p,,,(based on tag)
9, 6.30.25,DisFirst_reg,,-0.7331378299120235,,Dis_reg1,(based on tag),,1364,"Practice (8, grab.wav)", 6.30.25,66560,,,,,b,,,(based on tag)
10, 6.30.25,DisFirst_reg,,-1.1111111111111112,,Dis_reg1,(based on tag),,900,"Practice (9, grub.wav)", 6.30.25,68120,,,,,b,,,(based on tag)
11, 6.30.25,DisFirst_reg,,-0.5834305717619603,,Dis_reg1,(based on tag),,1714,"Practice (10, hippie.wav)", 6.30.25,70470,,,,,p,,,(based on tag)
12, 6.30.25,DisFirst_reg,,-0.6468305304010349,,Dis_reg1,(based on tag),,1546,"Practice (11, lobe.wav)", 6.30.25,72649,,,,,b,,,(based on tag)
13, 6.30.25,DisFirst_reg,,-0.4325259515570934,,Dis_reg1,(based on tag),,2312,"Practice (12, maybe.wav)", 6.30.25,75639,,,,,b,,,(based on tag)
14, 6.30.25,DisFirst_reg,,-0.3513703443429374,,Dis_reg1,(based on tag),,2846,"Practice (13, placebo.wav)", 6.30.25,79128,,,,,b,,,(based on tag)
15, 6.30.25,DisFirst_reg,,-0.5837711617046117,,Dis_reg1,(based on tag),,1713,"Practice (14, pope.wav)", 6.30.25,81488,,,,,p,,,(based on tag)
16, 6.30.25,DisFirst_reg,,-0.779423226812159,,Dis_reg1,(based on tag),,1283,"Practice (15, ripe.wav)", 6.30.25,83397,,,,,p,,,(based on tag)
17, 6.30.25,DisFirst_reg,,-0.6839945280437757,,Dis_reg1,(based on tag),,1462,"Practice (16, scuba.wav)", 6.30.25,85507,,,,,b,,,(based on tag)
18, 6.30.25,DisFirst_reg,,-0.6544502617801047,,Dis_reg1,(based on tag),,1528,"Practice (17, shape.wav)", 6.30.25,87667,,,,,p,,,(based on tag)
19, 6.30.25,DisFirst_reg,,-0.5274261603375527,,Dis_reg1,(based on tag),,1896,"Practice (18, toupee.wav)", 6.30.25,90186,,,,,p,,,(based on tag)
20, 6.30.25,DisFirst_reg,,-0.6578947368421053,,Dis_reg1,(based on tag),,1520,"Practice (19, canopy.wav)", 6.30.25,92356,,,,,p,,,(based on tag)
21, 6.30.25,DisFirst_reg,,-0.697350069735007,,Dis_reg1,(based on tag),,1434,"Practice (20, wallaby.wav)", 6.30.25,94435,,,,,b,,,(based on tag)
22, 6.30.25,DisFirst_reg,,-0.0753806723955977,,Dis_reg1,(any response),,13266,Instructions, 6.30.25,108223,,,,,,,,(any response)
23, 6.30.25,DisFirst_reg,,-333.3333333333333,,Dis_reg1,(based on tag),,3,"dispref (29, todib.wav)", 6.30.25,108402,,,,,b,,,(based on tag)
24, 6.30.25,DisFirst_reg,,-0.5656108597285068,,Dis_reg1,(based on tag),,1768,"dispref (6, bogepe.wav)", 6.30.25,111222,,,,,p,,,(based on tag)
25, 6.30.25,DisFirst_reg,,-0.7077140835102619,,Dis_reg1,(based on tag),,1413,"dispref (17, goteb.wav)", 6.30.25,112842,,,,,b,,,(based on tag)
26, 6.30.25,DisFirst_reg,,-0.6939625260235948,,Dis_reg1,(based on tag),,1441,"dispref (23, pigeb.wav)", 6.30.25,114481,,,,,b,,,(based on tag)
27, 6.30.25,DisFirst_reg,,-0.5973715651135006,,Dis_reg1,(based on tag),,1674,"dispref (4, bikube.wav)", 6.30.25,116341,,,,,p,,,(based on tag)
28, 6.30.25,DisFirst_reg,,-0.7309941520467836,,Dis_reg1,(based on tag),,1368,"dispref (16, dokupe.wav)", 6.30.25,117871,,,,,p,,,(based on tag)
29, 6.30.25,DisFirst_reg,,-0.7440476190476191,,Dis_reg1,(based on tag),,1344,"dispref (8, bugipe.wav)", 6.30.25,119370,,,,,p,,,(based on tag)
30, 6.30.25,DisFirst_reg,,-0.8496176720475785,,Dis_reg1,(based on tag),,1177,"dispref (15, dokub.wav)", 6.30.25,120690,,,,,b,,,(based on tag)
31, 6.30.25,DisFirst_reg,,-0.8012820512820513,,Dis_reg1,(based on tag),,1248,"dispref (32, todupe.wav)", 6.30.25,122110,,,,,p,,,(based on tag)
32, 6.30.25,DisFirst_reg,,-0.8298755186721992,,Dis_reg1,(based on tag),,1205,"dispref (10, degope.wav)", 6.30.25,123479,,,,,p,,,(based on tag)
33, 6.30.25,DisFirst_reg,,-0.9505703422053232,,Dis_reg1,(based on tag),,1052,"dispref (27, tekub.wav)", 6.30.25,124730,,,,,b,,,(based on tag)
34, 6.30.25,DisFirst_reg,,-0.8025682182985554,,Dis_reg1,(based on tag),,1246,"dispref (12, dikepe.wav)", 6.30.25,126169,,,,,p,,,(based on tag)
35, 6.30.25,DisFirst_reg,,-0.7479431563201197,,Dis_reg1,(based on tag),,1337,"dispref (22, pidope.wav)", 6.30.25,127649,,,,,p,,,(based on tag)
36, 6.30.25,DisFirst_reg,,-0.9775171065493646,,Dis_reg1,(based on tag),,1023,"dispref (3, bikub.wav)", 6.30.25,128829,,,,,b,,,(based on tag)
37, 6.30.25,DisFirst_reg,,-0.8873114463176575,,Dis_reg1,(based on tag),,1127,"dispref (2, bidope.wav)", 6.30.25,130158,,,,,p,,,(based on tag)
38, 6.30.25,DisFirst_reg,,-0.8460236886632826,,Dis_reg1,(based on tag),,1182,"dispref (7, bugib.wav)", 6.30.25,131578,,,,,b,,,(based on tag)
39, 6.30.25,DisFirst_reg,,-0.7656967840735069,,Dis_reg1,(based on tag),,1306,"dispref (28, tekupe.wav)", 6.30.25,133048,,,,,p,,,(based on tag)
40, 6.30.25,DisFirst_reg,,-0.7331378299120235,,Dis_reg1,(based on tag),,1364,"dispref (18, gotepe.wav)", 6.30.25,134578,,,,,p,,,(based on tag)
41, 6.30.25,DisFirst_reg,,-0.8237232289950577,,Dis_reg1,(based on tag),,1214,"dispref (11, dikeb.wav)", 6.30.25,135937,,,,,b,,,(based on tag)
42, 6.30.25,DisFirst_reg,,-0.8445945945945946,,Dis_reg1,(based on tag),,1184,"dispref (25, potib.wav)", 6.30.25,137267,,,,,b,,,(based on tag)
43, 6.30.25,DisFirst_reg,,-0.757002271006813,,Dis_reg1,(based on tag),,1321,"dispref (26, potipe.wav)", 6.30.25,138747,,,,,p,,,(based on tag)
44, 6.30.25,DisFirst_reg,,-0.5945303210463734,,Dis_reg1,(based on tag),,1682,"dispref (9, degob.wav)", 6.30.25,140627,,,,,b,,,(based on tag)
45, 6.30.25,DisFirst_reg,,-0.8123476848090982,,Dis_reg1,(based on tag),,1231,"dispref (14, dogipe.wav)", 6.30.25,142056,,,,,p,,,(based on tag)
46, 6.30.25,DisFirst_reg,,-0.7107320540156361,,Dis_reg1,(based on tag),,1407,"dispref (24, pigepe.wav)", 6.30.25,143616,,,,,p,,,(based on tag)
47, 6.30.25,DisFirst_reg,,-0.9652509652509652,,Dis_reg1,(based on tag),,1036,"dispref (1, bidob.wav)", 6.30.25,144856,,,,,b,,,(based on tag)
48, 6.30.25,DisFirst_reg,,-0.9578544061302682,,Dis_reg1,(based on tag),,1044,"dispref (5, bogeb.wav)", 6.30.25,146045,,,,,b,,,(based on tag)
49, 6.30.25,DisFirst_reg,,-0.8382229673093042,,Dis_reg1,(based on tag),,1193,"dispref (30, todipe.wav)", 6.30.25,147395,,,,,p,,,(based on tag)
50, 6.30.25,DisFirst_reg,,-1.1049723756906078,,Dis_reg1,(based on tag),,905,"dispref (21, pidob.wav)", 6.30.25,148525,,,,,b,,,(based on tag)
51, 6.30.25,DisFirst_reg,,-0.8271298593879239,,Dis_reg1,(based on tag),,1209,"dispref (20, gutope.wav)", 6.30.25,149895,,,,,p,,,(based on tag)
52, 6.30.25,DisFirst_reg,,-1.0319917440660475,,Dis_reg1,(based on tag),,969,"dispref (31, todub.wav)", 6.30.25,151064,,,,,b,,,(based on tag)
53, 6.30.25,DisFirst_reg,,-0.856898029134533,,Dis_reg1,(based on tag),,1167,"dispref (19, gutob.wav)", 6.30.25,152374,,,,,b,,,(based on tag)
54, 6.30.25,DisFirst_reg,,-0.9208103130755064,,Dis_reg1,(based on tag),,1086,"dispref (13, dogib.wav)", 6.30.25,153614,,,,,b,,,(based on tag)
55, 6.30.25,DisFirst_reg,,-0.0827540549486924,,Dis_reg1,(any response),,12084,Please take a b..., 6.30.25,164612,,,,,,,,(any response)
56, 6.30.25,DisFirst_reg,,-0.7331378299120235,,Dis_reg1,(based on tag),,1364,"dispref (8, bugipe.wav)", 6.30.25,166112,,,,,p,,,(based on tag)
57, 6.30.25,DisFirst_reg,,-0.777000777000777,,Dis_reg1,(based on tag),,1287,"dispref (7, bugib.wav)", 6.30.25,167541,,,,,b,,,(based on tag)
58, 6.30.25,DisFirst_reg,,-0.6153846153846154,,Dis_reg1,(based on tag),,1625,"dispref (25, potib.wav)", 6.30.25,169311,,,,,b,,,(based on tag)
59, 6.30.25,DisFirst_reg,,-0.8216926869350862,,Dis_reg1,(based on tag),,1217,"dispref (17, goteb.wav)", 6.30.25,170721,,,,,b,,,(based on tag)
60, 6.30.25,DisFirst_reg,,-0.9149130832570904,,Dis_reg1,(based on tag),,1093,"dispref (31, todub.wav)", 6.30.25,172001,,,,,b,,,(based on tag)
61, 6.30.25,DisFirst_reg,,-0.7616146230007617,,Dis_reg1,(based on tag),,1313,"dispref (10, degope.wav)", 6.30.25,173470,,,,,p,,,(based on tag)
62, 6.30.25,DisFirst_reg,,-1.0298661174047374,,Dis_reg1,(based on tag),,971,"dispref (11, dikeb.wav)", 6.30.25,174610,,,,,b,,,(based on tag)
63, 6.30.25,DisFirst_reg,,-1.1933174224343674,,Dis_reg1,(based on tag),,838,"dispref (21, pidob.wav)", 6.30.25,175600,,,,,b,,,(based on tag)
64, 6.30.25,DisFirst_reg,,-1.203369434416366,,Dis_reg1,(based on tag),,831,"dispref (5, bogeb.wav)", 6.30.25,176660,,,,,b,,,(based on tag)
65, 6.30.25,DisFirst_reg,,-0.8688097306689835,,Dis_reg1,(based on tag),,1151,"dispref (20, gutope.wav)", 6.30.25,178039,,,,,p,,,(based on tag)
66, 6.30.25,DisFirst_reg,,-0.8084074373484236,,Dis_reg1,(based on tag),,1237,"dispref (28, tekupe.wav)", 6.30.25,179529,,,,,p,,,(based on tag)
67, 6.30.25,DisFirst_reg,,-0.8382229673093042,,Dis_reg1,(based on tag),,1193,"dispref (2, bidope.wav)", 6.30.25,180889,,,,,p,,,(based on tag)
68, 6.30.25,DisFirst_reg,,-1.0224948875255624,,Dis_reg1,(based on tag),,978,"dispref (1, bidob.wav)", 6.30.25,182039,,,,,b,,,(based on tag)
69, 6.30.25,DisFirst_reg,,-0.7423904974016332,,Dis_reg1,(based on tag),,1347,"dispref (22, pidope.wav)", 6.30.25,183538,,,,,p,,,(based on tag)
70, 6.30.25,DisFirst_reg,,-0.9041591320072332,,Dis_reg1,(based on tag),,1106,"dispref (26, potipe.wav)", 6.30.25,184788,,,,,p,,,(based on tag)
71, 6.30.25,DisFirst_reg,,-0.7299270072992701,,Dis_reg1,(based on tag),,1370,"dispref (18, gotepe.wav)", 6.30.25,186458,,,,,p,,,(based on tag)
72, 6.30.25,DisFirst_reg,,-0.78125,,Dis_reg1,(based on tag),,1280,"dispref (12, dikepe.wav)", 6.30.25,187878,,,,,p,,,(based on tag)
73, 6.30.25,DisFirst_reg,,-0.8051529790660226,,Dis_reg1,(based on tag),,1242,"dispref (24, pigepe.wav)", 6.30.25,189277,,,,,p,,,(based on tag)
74, 6.30.25,DisFirst_reg,,-0.7880220646178093,,Dis_reg1,(based on tag),,1269,"dispref (13, dogib.wav)", 6.30.25,190737,,,,,b,,,(based on tag)
75, 6.30.25,DisFirst_reg,,-0.8865248226950354,,Dis_reg1,(based on tag),,1128,"dispref (29, todib.wav)", 6.30.25,192057,,,,,b,,,(based on tag)
76, 6.30.25,DisFirst_reg,,-0.7604562737642585,,Dis_reg1,(based on tag),,1315,"dispref (14, dogipe.wav)", 6.30.25,193577,,,,,p,,,(based on tag)
77, 6.30.25,DisFirst_reg,,-0.9624639076034648,,Dis_reg1,(based on tag),,1039,"dispref (19, gutob.wav)", 6.30.25,194786,,,,,b,,,(based on tag)
